 ,corr_resp,trials.thisRepN,trials.thisTrialN,trials.thisN,trials.thisIndex,trials_2.thisRepN,trials_2.thisTrialN,trials_2.thisN,trials_2.thisIndex,fixation.started,fixation.stopped,line1.started,line2.started,line3.started,line4.started,probe.started,key_resp.started,key_resp.keys,key_resp.corr,key_resp.rt,key_resp.duration,participant,session,date,expName,psychopyVersion,frameRate
-50,x,0,0,0,0,,,,,15.0778686,16.0855605,16.0855605,16.0855605,16.0855605,16.0855605,17.0846943,17.0846943,x,1,1.6579328,None,2,1,2023-10-09_11h22.33.754,tutorial4,2023.1.3,60.25395838
150,v,0,1,1,1,,,,,18.7684154,19.7681121,19.7681121,19.7681121,19.7681121,19.7681121,20.7684247,20.7684247,v,1,1.0937862,None,2,1,2023-10-09_11h22.33.754,tutorial4,2023.1.3,60.25395838
50,c,0,2,2,2,,,,,21.8849097,22.8851478,22.8851478,22.8851478,22.8851478,22.8851478,23.8849052,23.8849052,c,1,0.7724112,None,2,1,2023-10-09_11h22.33.754,tutorial4,2023.1.3,60.25395838
-150,z,0,3,3,3,,,,,24.6850405,25.6850028,25.6850028,25.6850028,25.6850028,25.6850028,26.6843693,26.6843693,z,1,0.999487,None,2,1,2023-10-09_11h22.33.754,tutorial4,2023.1.3,60.25395838
-50,x,1,0,4,0,,,,,27.7013995,28.701372,28.701372,28.701372,28.701372,28.701372,29.7010689,29.7010689,x,1,0.7798624,None,2,1,2023-10-09_11h22.33.754,tutorial4,2023.1.3,60.25395838
150,v,1,1,5,1,,,,,30.5007747,31.5012375,31.5012375,31.5012375,31.5012375,31.5012375,32.5011852,32.5011852,v,1,1.0428856,None,2,1,2023-10-09_11h22.33.754,tutorial4,2023.1.3,60.25395838
50,c,1,2,6,2,,,,,33.5679887,34.5680753,34.5680753,34.5680753,34.5680753,34.5680753,35.567964,35.567964,c,1,0.841056,None,2,1,2023-10-09_11h22.33.754,tutorial4,2023.1.3,60.25395838
-150,z,1,3,7,3,,,,,36.4342787,37.4342677,37.4342677,37.4342677,37.4342677,37.4342677,38.4344406,38.4344406,z,1,0.9631315,None,2,1,2023-10-09_11h22.33.754,tutorial4,2023.1.3,60.25395838
-50,x,2,0,8,0,,,,,39.4169647,40.4173881,40.4173881,40.4173881,40.4173881,40.4173881,41.4171332,41.4171332,x,1,1.0658086,None,2,1,2023-10-09_11h22.33.754,tutorial4,2023.1.3,60.25395838
150,v,2,1,9,1,,,,,42.5004801,43.5004929,43.5004929,43.5004929,43.5004929,43.5004929,44.5004998,44.5004998,v,1,1.0015456,None,2,1,2023-10-09_11h22.33.754,tutorial4,2023.1.3,60.25395838
50,c,2,2,10,2,,,,,45.5337523,46.5339821,46.5339821,46.5339821,46.5339821,46.5339821,47.5338024,47.5338024,c,1,0.8585366,None,2,1,2023-10-09_11h22.33.754,tutorial4,2023.1.3,60.25395838
-150,z,2,3,11,3,,,,,48.4166663,49.4167916,49.4167916,49.4167916,49.4167916,49.4167916,50.4170568,50.4170568,z,1,1.0621558,None,2,1,2023-10-09_11h22.33.754,tutorial4,2023.1.3,60.25395838
-50,x,3,0,12,0,,,,,51.5002231,52.5000412,52.5000412,52.5000412,52.5000412,52.5000412,53.5001935,53.5001935,x,1,2.3850339,None,2,1,2023-10-09_11h22.33.754,tutorial4,2023.1.3,60.25395838
150,v,3,1,13,1,,,,,55.9168276,56.9162051,56.9162051,56.9162051,56.9162051,56.9162051,57.9166099,57.9166099,v,1,1.3212195,None,2,1,2023-10-09_11h22.33.754,tutorial4,2023.1.3,60.25395838
50,c,3,2,14,2,,,,,59.266431,60.2667279,60.2667279,60.2667279,60.2667279,60.2667279,61.2663615,61.2663615,c,1,0.7334503,None,2,1,2023-10-09_11h22.33.754,tutorial4,2023.1.3,60.25395838
-150,z,3,3,15,3,,,,,62.0159085,63.0165177,63.0165177,63.0165177,63.0165177,63.0165177,64.0157116,64.0157116,z,1,0.9206374,None,2,1,2023-10-09_11h22.33.754,tutorial4,2023.1.3,60.25395838
-50,x,4,0,16,0,,,,,64.9661931,65.9660533,65.9660533,65.9660533,65.9660533,65.9660533,66.9664935,66.9664935,x,1,1.1561436,None,2,1,2023-10-09_11h22.33.754,tutorial4,2023.1.3,60.25395838
150,v,4,1,17,1,,,,,68.1488107,69.1494622,69.1494622,69.1494622,69.1494622,69.1494622,70.1492795,70.1492795,v,1,1.0043313,None,2,1,2023-10-09_11h22.33.754,tutorial4,2023.1.3,60.25395838
50,c,4,2,18,2,,,,,71.1826946,72.1827796,72.1827796,72.1827796,72.1827796,72.1827796,73.1828471,73.1828471,c,1,1.5286788,None,2,1,2023-10-09_11h22.33.754,tutorial4,2023.1.3,60.25395838
-150,z,4,3,19,3,,,,,74.7323826,75.732784,75.732784,75.732784,75.732784,75.732784,76.7322465,76.7322465,z,1,0.9289764,None,2,1,2023-10-09_11h22.33.754,tutorial4,2023.1.3,60.25395838
-50,x,5,0,20,0,,,,,77.6822496,78.6823562,78.6823562,78.6823562,78.6823562,78.6823562,79.6824239,79.6824239,x,1,0.9954995,None,2,1,2023-10-09_11h22.33.754,tutorial4,2023.1.3,60.25395838
150,v,5,1,21,1,,,,,80.6983459,81.6986695,81.6986695,81.6986695,81.6986695,81.6986695,82.6986376,82.6986376,v,1,1.5362609,None,2,1,2023-10-09_11h22.33.754,tutorial4,2023.1.3,60.25395838
50,c,5,2,22,2,,,,,84.265735,85.2653082,85.2653082,85.2653082,85.2653082,85.2653082,86.2653365,86.2653365,c,1,3.694589,None,2,1,2023-10-09_11h22.33.754,tutorial4,2023.1.3,60.25395838
-150,z,5,3,23,3,,,,,89.9810415,90.9819469,90.9819469,90.9819469,90.9819469,90.9819469,91.9815008,91.9815008,z,1,2.762936,None,2,1,2023-10-09_11h22.33.754,tutorial4,2023.1.3,60.25395838
-50,x,6,0,24,0,,,,,94.7646267,95.7650801,95.7650801,95.7650801,95.7650801,95.7650801,96.7644902,96.7644902,x,1,1.2773025,None,2,1,2023-10-09_11h22.33.754,tutorial4,2023.1.3,60.25395838
150,v,6,1,25,1,,,,,98.0646306,99.0647913,99.0647913,99.0647913,99.0647913,99.0647913,100.0646375,100.0646375,v,1,1.031935,None,2,1,2023-10-09_11h22.33.754,tutorial4,2023.1.3,60.25395838
50,c,6,2,26,2,,,,,101.1142767,102.1145666,102.1145666,102.1145666,102.1145666,102.1145666,103.1143814,103.1143814,c,1,0.9331461,None,2,1,2023-10-09_11h22.33.754,tutorial4,2023.1.3,60.25395838
-150,z,6,3,27,3,,,,,104.0641762,105.0642413,105.0642413,105.0642413,105.0642413,105.0642413,106.06428,106.06428,z,1,1.3766353,None,2,1,2023-10-09_11h22.33.754,tutorial4,2023.1.3,60.25395838
-50,x,7,0,28,0,,,,,107.4640157,108.4642161,108.4642161,108.4642161,108.4642161,108.4642161,109.4641453,109.4641453,x,1,0.7778374,None,2,1,2023-10-09_11h22.33.754,tutorial4,2023.1.3,60.25395838
150,v,7,1,29,1,,,,,110.2639506,111.2641085,111.2641085,111.2641085,111.2641085,111.2641085,112.2640549,112.2640549,v,1,1.0131628,None,2,1,2023-10-09_11h22.33.754,tutorial4,2023.1.3,60.25395838
50,c,7,2,30,2,,,,,113.296576,114.2970708,114.2970708,114.2970708,114.2970708,114.2970708,115.2969996,115.2969996,c,1,0.8114209,None,2,1,2023-10-09_11h22.33.754,tutorial4,2023.1.3,60.25395838
-150,z,7,3,31,3,,,,,116.1303575,117.1298993,117.1298993,117.1298993,117.1298993,117.1298993,118.1305083,118.1305083,z,1,0.9330622,None,2,1,2023-10-09_11h22.33.754,tutorial4,2023.1.3,60.25395838
-50,x,8,0,32,0,,,,,119.0801176,120.0799008,120.0799008,120.0799008,120.0799008,120.0799008,121.0800801,121.0800801,x,1,0.7258678,None,2,1,2023-10-09_11h22.33.754,tutorial4,2023.1.3,60.25395838
150,v,8,1,33,1,,,,,121.8300218,122.8300386,122.8300386,122.8300386,122.8300386,122.8300386,123.8302838,123.8302838,v,1,1.3269537,None,2,1,2023-10-09_11h22.33.754,tutorial4,2023.1.3,60.25395838
50,c,8,2,34,2,,,,,125.1799996,126.1798221,126.1798221,126.1798221,126.1798221,126.1798221,127.1799917,127.1799917,c,1,0.5088143,None,2,1,2023-10-09_11h22.33.754,tutorial4,2023.1.3,60.25395838
-150,z,8,3,35,3,,,,,127.7129724,128.7133195,128.7133195,128.7133195,128.7133195,128.7133195,129.7128881,129.7128881,z,1,1.0417607,None,2,1,2023-10-09_11h22.33.754,tutorial4,2023.1.3,60.25395838
-50,x,9,0,36,0,,,,,130.7795448,131.7798451,131.7798451,131.7798451,131.7798451,131.7798451,132.7798743,132.7798743,x,1,0.6073553,None,2,1,2023-10-09_11h22.33.754,tutorial4,2023.1.3,60.25395838
150,v,9,1,37,1,,,,,133.4123214,134.4128122,134.4128122,134.4128122,134.4128122,134.4128122,135.4129175,135.4129175,v,1,0.3726616,None,2,1,2023-10-09_11h22.33.754,tutorial4,2023.1.3,60.25395838
50,c,9,2,38,2,,,,,135.8127811,136.8127928,136.8127928,136.8127928,136.8127928,136.8127928,137.8125358,137.8125358,c,1,0.6717862,None,2,1,2023-10-09_11h22.33.754,tutorial4,2023.1.3,60.25395838
-150,z,9,3,39,3,,,,,138.5124699,139.5124777,139.5124777,139.5124777,139.5124777,139.5124777,140.5120456,140.5120456,z,1,1.0361958,None,2,1,2023-10-09_11h22.33.754,tutorial4,2023.1.3,60.25395838
-50,x,10,0,40,0,,,,,141.5785814,142.5789471,142.5789471,142.5789471,142.5789471,142.5789471,143.5789356,143.5789356,x,1,0.6459946,None,2,1,2023-10-09_11h22.33.754,tutorial4,2023.1.3,60.25395838
150,v,10,1,41,1,,,,,144.2455025,145.2455503,145.2455503,145.2455503,145.2455503,145.2455503,146.2449832,146.2449832,v,1,0.469043,None,2,1,2023-10-09_11h22.33.754,tutorial4,2023.1.3,60.25395838
50,c,10,2,42,2,,,,,146.7455714,147.7448264,147.7448264,147.7448264,147.7448264,147.7448264,148.745505,148.745505,c,1,0.5654288,None,2,1,2023-10-09_11h22.33.754,tutorial4,2023.1.3,60.25395838
-150,z,10,3,43,3,,,,,149.3286584,150.3284189,150.3284189,150.3284189,150.3284189,150.3284189,151.3286078,151.3286078,z,1,1.5436073,None,2,1,2023-10-09_11h22.33.754,tutorial4,2023.1.3,60.25395838
-50,x,11,0,44,0,,,,,152.8950445,153.8951881,153.8951881,153.8951881,153.8951881,153.8951881,154.8951315,154.8951315,x,1,1.001777,None,2,1,2023-10-09_11h22.33.754,tutorial4,2023.1.3,60.25395838
150,v,11,1,45,1,,,,,155.9282451,156.9288495,156.9288495,156.9288495,156.9288495,156.9288495,157.9278955,157.9278955,v,1,0.4047318,None,2,1,2023-10-09_11h22.33.754,tutorial4,2023.1.3,60.25395838
50,c,11,2,46,2,,,,,158.3615106,159.3617805,159.3617805,159.3617805,159.3617805,159.3617805,160.3612762,160.3612762,c,1,0.7038609,None,2,1,2023-10-09_11h22.33.754,tutorial4,2023.1.3,60.25395838
-150,z,11,3,47,3,,,,,161.0946934,162.0948022,162.0948022,162.0948022,162.0948022,162.0948022,163.0947165,163.0947165,z,1,0.8760421,None,2,1,2023-10-09_11h22.33.754,tutorial4,2023.1.3,60.25395838
-50,x,12,0,48,0,,,,,163.9945132,164.9944918,164.9944918,164.9944918,164.9944918,164.9944918,165.9946871,165.9946871,x,1,0.9200528,None,2,1,2023-10-09_11h22.33.754,tutorial4,2023.1.3,60.25395838
150,v,12,1,49,1,,,,,166.944295,167.9444531,167.9444531,167.9444531,167.9444531,167.9444531,168.943802,168.943802,v,1,0.4185556,None,2,1,2023-10-09_11h22.33.754,tutorial4,2023.1.3,60.25395838
50,c,12,2,50,2,,,,,169.3941977,170.3942677,170.3942677,170.3942677,170.3942677,170.3942677,171.3939212,171.3939212,c,1,0.418629,None,2,1,2023-10-09_11h22.33.754,tutorial4,2023.1.3,60.25395838
-150,z,12,3,51,3,,,,,171.8682001,172.8776961,172.8776961,172.8776961,172.8776961,172.8776961,173.8776255,173.8776255,z,1,0.8576084,None,2,1,2023-10-09_11h22.33.754,tutorial4,2023.1.3,60.25395838
-50,x,13,0,52,0,,,,,174.7602972,175.7607385,175.7607385,175.7607385,175.7607385,175.7607385,176.7606998,176.7606998,x,1,0.3830426,None,2,1,2023-10-09_11h22.33.754,tutorial4,2023.1.3,60.25395838
150,v,13,1,53,1,,,,,177.1610265,178.1608131,178.1608131,178.1608131,178.1608131,178.1608131,179.1604978,179.1604978,v,1,0.3705929,None,2,1,2023-10-09_11h22.33.754,tutorial4,2023.1.3,60.25395838
50,c,13,2,54,2,,,,,179.5605922,180.5607673,180.5607673,180.5607673,180.5607673,180.5607673,181.5599007,181.5599007,c,1,0.4993568,None,2,1,2023-10-09_11h22.33.754,tutorial4,2023.1.3,60.25395838
-150,z,13,3,55,3,,,,,182.0765307,183.0772901,183.0772901,183.0772901,183.0772901,183.0772901,184.0770026,184.0770026,z,1,0.4203751,None,2,1,2023-10-09_11h22.33.754,tutorial4,2023.1.3,60.25395838
-50,x,14,0,56,0,,,,,184.5264145,185.5270042,185.5270042,185.5270042,185.5270042,185.5270042,186.5268658,186.5268658,x,1,0.4920735,None,2,1,2023-10-09_11h22.33.754,tutorial4,2023.1.3,60.25395838
150,v,14,1,57,1,,,,,187.0434534,188.043549,188.043549,188.043549,188.043549,188.043549,189.0430894,189.0430894,v,1,0.3624521,None,2,1,2023-10-09_11h22.33.754,tutorial4,2023.1.3,60.25395838
50,c,14,2,58,2,,,,,189.426768,190.4265391,190.4265391,190.4265391,190.4265391,190.4265391,191.4264805,191.4264805,c,1,0.3638697,None,2,1,2023-10-09_11h22.33.754,tutorial4,2023.1.3,60.25395838
-150,z,14,3,59,3,,,,,191.8099327,192.8099847,192.8099847,192.8099847,192.8099847,192.8099847,193.8097651,193.8097651,z,1,0.9974482,None,2,1,2023-10-09_11h22.33.754,tutorial4,2023.1.3,60.25395838
-50,x,15,0,60,0,,,,,194.8266152,195.8264548,195.8264548,195.8264548,195.8264548,195.8264548,196.8259926,196.8259926,x,1,0.5515447,None,2,1,2023-10-09_11h22.33.754,tutorial4,2023.1.3,60.25395838
150,v,15,1,61,1,,,,,197.4096534,198.4097688,198.4097688,198.4097688,198.4097688,198.4097688,199.4090898,199.4090898,v,1,0.4040348,None,2,1,2023-10-09_11h22.33.754,tutorial4,2023.1.3,60.25395838
50,c,15,2,62,2,,,,,199.8428495,200.8421523,200.8421523,200.8421523,200.8421523,200.8421523,201.8424791,201.8424791,c,1,0.5533094,None,2,1,2023-10-09_11h22.33.754,tutorial4,2023.1.3,60.25395838
-150,z,15,3,63,3,,,,,202.4258269,203.4258091,203.4258091,203.4258091,203.4258091,203.4258091,204.4259155,204.4259155,z,1,0.4372185,None,2,1,2023-10-09_11h22.33.754,tutorial4,2023.1.3,60.25395838
-50,x,16,0,64,0,,,,,204.8923212,205.892415,205.892415,205.892415,205.892415,205.892415,206.8925179,206.8925179,x,1,1.2291921,None,2,1,2023-10-09_11h22.33.754,tutorial4,2023.1.3,60.25395838
150,v,16,1,65,1,,,,,208.1423022,209.1424642,209.1424642,209.1424642,209.1424642,209.1424642,210.142288,210.142288,v,1,0.6504265,None,2,1,2023-10-09_11h22.33.754,tutorial4,2023.1.3,60.25395838
50,c,16,2,66,2,,,,,210.808875,211.808834,211.808834,211.808834,211.808834,211.808834,212.8088535,212.8088535,c,1,0.562686,None,2,1,2023-10-09_11h22.33.754,tutorial4,2023.1.3,60.25395838
-150,z,16,3,67,3,,,,,213.3919388,214.392159,214.392159,214.392159,214.392159,214.392159,215.3921545,215.3921545,z,1,0.6512368,None,2,1,2023-10-09_11h22.33.754,tutorial4,2023.1.3,60.25395838
-50,x,17,0,68,0,,,,,216.0751364,217.0755449,217.0755449,217.0755449,217.0755449,217.0755449,218.0755505,218.0755505,x,1,0.6351096,None,2,1,2023-10-09_11h22.33.754,tutorial4,2023.1.3,60.25395838
150,v,17,1,69,1,,,,,218.7417883,219.741683,219.741683,219.741683,219.741683,219.741683,220.7417116,220.7417116,v,1,0.5692693,None,2,1,2023-10-09_11h22.33.754,tutorial4,2023.1.3,60.25395838
50,c,17,2,70,2,,,,,221.3413455,222.3415715,222.3415715,222.3415715,222.3415715,222.3415715,223.3416299,223.3416299,c,1,0.5099932,None,2,1,2023-10-09_11h22.33.754,tutorial4,2023.1.3,60.25395838
-150,z,17,3,71,3,,,,,223.8747479,224.8748113,224.8748113,224.8748113,224.8748113,224.8748113,225.8749187,225.8749187,z,1,1.3496575,None,2,1,2023-10-09_11h22.33.754,tutorial4,2023.1.3,60.25395838
-50,x,18,0,72,0,,,,,227.2414939,228.24106,228.24106,228.24106,228.24106,228.24106,229.2409639,229.2409639,x,1,0.4447653,None,2,1,2023-10-09_11h22.33.754,tutorial4,2023.1.3,60.25395838
150,v,18,1,73,1,,,,,229.7080898,230.708115,230.708115,230.708115,230.708115,230.708115,231.7082906,231.7082906,v,1,0.4015544,None,2,1,2023-10-09_11h22.33.754,tutorial4,2023.1.3,60.25395838
50,c,18,2,74,2,,,,,232.1410952,233.1410054,233.1410054,233.1410054,233.1410054,233.1410054,234.1411368,234.1411368,c,1,0.3610251,None,2,1,2023-10-09_11h22.33.754,tutorial4,2023.1.3,60.25395838
-150,z,18,3,75,3,,,,,234.5244627,235.5245202,235.5245202,235.5245202,235.5245202,235.5245202,236.52456,236.52456,z,1,0.8090032,None,2,1,2023-10-09_11h22.33.754,tutorial4,2023.1.3,60.25395838
-50,x,19,0,76,0,,,,,237.3571119,238.3577778,238.3577778,238.3577778,238.3577778,238.3577778,239.3570333,239.3570333,x,1,0.4388719,None,2,1,2023-10-09_11h22.33.754,tutorial4,2023.1.3,60.25395838
150,v,19,1,77,1,,,,,239.8242142,240.8243048,240.8243048,240.8243048,240.8243048,240.8243048,241.8238637,241.8238637,v,1,0.3882873,None,2,1,2023-10-09_11h22.33.754,tutorial4,2023.1.3,60.25395838
50,c,19,2,78,2,,,,,242.2403699,243.2402615,243.2402615,243.2402615,243.2402615,243.2402615,244.2403643,244.2403643,c,1,0.3683774,None,2,1,2023-10-09_11h22.33.754,tutorial4,2023.1.3,60.25395838
-150,z,19,3,79,3,,,,,244.6400353,245.6399654,245.6399654,245.6399654,245.6399654,245.6399654,246.640223,246.640223,z,1,0.7399412,None,2,1,2023-10-09_11h22.33.754,tutorial4,2023.1.3,60.25395838
-50,x,20,0,80,0,,,,,247.4069867,248.4072883,248.4072883,248.4072883,248.4072883,248.4072883,249.4070025,249.4070025,x,1,0.4406994,None,2,1,2023-10-09_11h22.33.754,tutorial4,2023.1.3,60.25395838
150,v,20,1,81,1,,,,,249.8732364,250.8733294,250.8733294,250.8733294,250.8733294,250.8733294,251.8733153,251.8733153,v,1,0.4014023,None,2,1,2023-10-09_11h22.33.754,tutorial4,2023.1.3,60.25395838
50,c,20,2,82,2,,,,,252.307402,253.3069732,253.3069732,253.3069732,253.3069732,253.3069732,254.3069293,254.3069293,c,1,0.3148754,None,2,1,2023-10-09_11h22.33.754,tutorial4,2023.1.3,60.25395838
-150,z,20,3,83,3,,,,,254.6398359,255.6401982,255.6401982,255.6401982,255.6401982,255.6401982,256.6398895,256.6398895,z,1,0.3658738,None,2,1,2023-10-09_11h22.33.754,tutorial4,2023.1.3,60.25395838
-50,x,21,0,84,0,,,,,257.022986,258.023531,258.023531,258.023531,258.023531,258.023531,259.0232165,259.0232165,x,1,0.5292049,None,2,1,2023-10-09_11h22.33.754,tutorial4,2023.1.3,60.25395838
150,v,21,1,85,1,,,,,259.5729702,260.5734394,260.5734394,260.5734394,260.5734394,260.5734394,261.5729344,261.5729344,v,1,0.9957982,None,2,1,2023-10-09_11h22.33.754,tutorial4,2023.1.3,60.25395838
50,c,21,2,86,2,,,,,262.5893936,263.5891471,263.5891471,263.5891471,263.5891471,263.5891471,264.5893997,264.5893997,c,1,0.3884903,None,2,1,2023-10-09_11h22.33.754,tutorial4,2023.1.3,60.25395838
-150,z,21,3,87,3,,,,,265.0058025,266.006252,266.006252,266.006252,266.006252,266.006252,267.0061792,267.0061792,z,1,0.4527162,None,2,1,2023-10-09_11h22.33.754,tutorial4,2023.1.3,60.25395838
-50,x,22,0,88,0,,,,,267.4890999,268.4891004,268.4891004,268.4891004,268.4891004,268.4891004,269.4890662,269.4890662,x,1,0.6885485,None,2,1,2023-10-09_11h22.33.754,tutorial4,2023.1.3,60.25395838
150,v,22,1,89,1,,,,,270.2061526,271.2059818,271.2059818,271.2059818,271.2059818,271.2059818,272.2059671,272.2059671,v,1,4.3012726,None,2,1,2023-10-09_11h22.33.754,tutorial4,2023.1.3,60.25395838
50,c,22,2,90,2,,,,,276.5383969,277.5388625,277.5388625,277.5388625,277.5388625,277.5388625,278.5385916,278.5385916,c,1,0.5289861,None,2,1,2023-10-09_11h22.33.754,tutorial4,2023.1.3,60.25395838
-150,z,22,3,91,3,,,,,279.0889239,280.0889433,280.0889433,280.0889433,280.0889433,280.0889433,281.0886409,281.0886409,z,1,0.8941522,None,2,1,2023-10-09_11h22.33.754,tutorial4,2023.1.3,60.25395838
-50,x,23,0,92,0,,,,,282.0053348,283.0055805,283.0055805,283.0055805,283.0055805,283.0055805,284.0054287,284.0054287,x,1,0.5100367,None,2,1,2023-10-09_11h22.33.754,tutorial4,2023.1.3,60.25395838
150,v,23,1,93,1,,,,,284.5382227,285.5384116,285.5384116,285.5384116,285.5384116,285.5384116,286.5382095,286.5382095,v,1,0.4961663,None,2,1,2023-10-09_11h22.33.754,tutorial4,2023.1.3,60.25395838
50,c,23,2,94,2,,,,,287.0552519,288.0550927,288.0550927,288.0550927,288.0550927,288.0550927,289.055206,289.055206,c,1,0.7030108,None,2,1,2023-10-09_11h22.33.754,tutorial4,2023.1.3,60.25395838
-150,z,23,3,95,3,,,,,289.7882364,290.7882772,290.7882772,290.7882772,290.7882772,290.7882772,291.788184,291.788184,z,1,0.5828417,None,2,1,2023-10-09_11h22.33.754,tutorial4,2023.1.3,60.25395838
-50,x,24,0,96,0,,,,,292.3879654,293.3881977,293.3881977,293.3881977,293.3881977,293.3881977,294.3878774,294.3878774,x,1,0.5480148,None,2,1,2023-10-09_11h22.33.754,tutorial4,2023.1.3,60.25395838
150,v,24,1,97,1,,,,,294.9542116,295.9549656,295.9549656,295.9549656,295.9549656,295.9549656,296.9550335,296.9550335,v,1,0.418088,None,2,1,2023-10-09_11h22.33.754,tutorial4,2023.1.3,60.25395838
50,c,24,2,98,2,,,,,297.4045701,298.4047932,298.4047932,298.4047932,298.4047932,298.4047932,299.4045072,299.4045072,c,1,0.6949204,None,2,1,2023-10-09_11h22.33.754,tutorial4,2023.1.3,60.25395838
-150,z,24,3,99,3,,,,,300.1211862,301.1212555,301.1212555,301.1212555,301.1212555,301.1212555,302.1211937,302.1211937,z,1,0.6510239,None,2,1,2023-10-09_11h22.33.754,tutorial4,2023.1.3,60.25395838
-50,x,25,0,100,0,,,,,302.8042313,303.8043356,303.8043356,303.8043356,303.8043356,303.8043356,304.8042443,304.8042443,x,1,0.8569164,None,2,1,2023-10-09_11h22.33.754,tutorial4,2023.1.3,60.25395838
150,v,25,1,101,1,,,,,305.6874322,306.6868259,306.6868259,306.6868259,306.6868259,306.6868259,307.6871798,307.6871798,v,1,0.3951365,None,2,1,2023-10-09_11h22.33.754,tutorial4,2023.1.3,60.25395838
50,c,25,2,102,2,,,,,308.1034699,309.1042485,309.1042485,309.1042485,309.1042485,309.1042485,310.104233,310.104233,c,1,0.4321087,None,2,1,2023-10-09_11h22.33.754,tutorial4,2023.1.3,60.25395838
-150,z,25,3,103,3,,,,,310.5534021,311.5541484,311.5541484,311.5541484,311.5541484,311.5541484,312.5539117,312.5539117,z,1,0.9556331,None,2,1,2023-10-09_11h22.33.754,tutorial4,2023.1.3,60.25395838
-50,x,26,0,104,0,,,,,313.5371763,314.5369537,314.5369537,314.5369537,314.5369537,314.5369537,315.5370547,315.5370547,x,1,0.8061318,None,2,1,2023-10-09_11h22.33.754,tutorial4,2023.1.3,60.25395838
150,v,26,1,105,1,,,,,316.3700555,317.3706152,317.3706152,317.3706152,317.3706152,317.3706152,318.3706115,318.3706115,v,1,0.421927,None,2,1,2023-10-09_11h22.33.754,tutorial4,2023.1.3,60.25395838
50,c,26,2,106,2,,,,,318.819664,319.8202905,319.8202905,319.8202905,319.8202905,319.8202905,320.8197393,320.8197393,c,1,0.4645602,None,2,1,2023-10-09_11h22.33.754,tutorial4,2023.1.3,60.25395838
-150,z,26,3,107,3,,,,,321.3034963,322.3037493,322.3037493,322.3037493,322.3037493,322.3037493,323.3028404,323.3028404,z,1,0.8197839,None,2,1,2023-10-09_11h22.33.754,tutorial4,2023.1.3,60.25395838
-50,x,27,0,108,0,,,,,324.1527403,325.153496,325.153496,325.153496,325.153496,325.153496,326.1532343,326.1532343,x,1,0.615774,None,2,1,2023-10-09_11h22.33.754,tutorial4,2023.1.3,60.25395838
150,v,27,1,109,1,,,,,326.7862085,327.7861211,327.7861211,327.7861211,327.7861211,327.7861211,328.7861059,328.7861059,v,1,0.4013114,None,2,1,2023-10-09_11h22.33.754,tutorial4,2023.1.3,60.25395838
50,c,27,2,110,2,,,,,329.2198355,330.2198885,330.2198885,330.2198885,330.2198885,330.2198885,331.2193253,331.2193253,c,1,0.6348903,None,2,1,2023-10-09_11h22.33.754,tutorial4,2023.1.3,60.25395838
-150,z,27,3,111,3,,,,,331.8856112,332.8859463,332.8859463,332.8859463,332.8859463,332.8859463,333.8856194,333.8856194,z,1,0.5325843,None,2,1,2023-10-09_11h22.33.754,tutorial4,2023.1.3,60.25395838
-50,x,28,0,112,0,,,,,334.435936,335.4359945,335.4359945,335.4359945,335.4359945,335.4359945,336.4362074,336.4362074,x,1,0.6017322,None,2,1,2023-10-09_11h22.33.754,tutorial4,2023.1.3,60.25395838
150,v,28,1,113,1,,,,,337.0693335,338.0694424,338.0694424,338.0694424,338.0694424,338.0694424,339.0691777,339.0691777,v,1,0.4258257,None,2,1,2023-10-09_11h22.33.754,tutorial4,2023.1.3,60.25395838
50,c,28,2,114,2,,,,,339.5193788,340.5194134,340.5194134,340.5194134,340.5194134,340.5194134,341.5192267,341.5192267,c,1,0.5519343,None,2,1,2023-10-09_11h22.33.754,tutorial4,2023.1.3,60.25395838
-150,z,28,3,115,3,,,,,342.1024992,343.1023876,343.1023876,343.1023876,343.1023876,343.1023876,344.1024455,344.1024455,z,1,0.637977,None,2,1,2023-10-09_11h22.33.754,tutorial4,2023.1.3,60.25395838
-50,x,29,0,116,0,,,,,344.7690213,345.7685981,345.7685981,345.7685981,345.7685981,345.7685981,346.7690268,346.7690268,x,1,0.3878753,None,2,1,2023-10-09_11h22.33.754,tutorial4,2023.1.3,60.25395838
150,v,29,1,117,1,,,,,347.1852654,348.1853008,348.1853008,348.1853008,348.1853008,348.1853008,349.1853804,349.1853804,v,1,0.4161437,None,2,1,2023-10-09_11h22.33.754,tutorial4,2023.1.3,60.25395838
50,c,29,2,118,2,,,,,349.6188176,350.6189967,350.6189967,350.6189967,350.6189967,350.6189967,351.6184905,351.6184905,c,1,0.4993585,None,2,1,2023-10-09_11h22.33.754,tutorial4,2023.1.3,60.25395838
-150,z,29,3,119,3,,,,,352.1351005,353.1347649,353.1347649,353.1347649,353.1347649,353.1347649,354.1348436,354.1348436,z,1,0.4330106,None,2,1,2023-10-09_11h22.33.754,tutorial4,2023.1.3,60.25395838
-50,x,30,0,120,0,,,,,354.5846418,355.5848759,355.5848759,355.5848759,355.5848759,355.5848759,356.5847687,356.5847687,x,1,0.7184809,None,2,1,2023-10-09_11h22.33.754,tutorial4,2023.1.3,60.25395838
150,v,30,1,121,1,,,,,357.3349491,358.3346691,358.3346691,358.3346691,358.3346691,358.3346691,359.3342914,359.3342914,v,1,0.6126516,None,2,1,2023-10-09_11h22.33.754,tutorial4,2023.1.3,60.25395838
50,c,30,2,122,2,,,,,359.9679009,360.9682308,360.9682308,360.9682308,360.9682308,360.9682308,361.9679525,361.9679525,c,1,0.4193583,None,2,1,2023-10-09_11h22.33.754,tutorial4,2023.1.3,60.25395838
-150,z,30,3,123,3,,,,,362.4178145,363.4179383,363.4179383,363.4179383,363.4179383,363.4179383,364.4180979,364.4180979,z,1,0.7164639,None,2,1,2023-10-09_11h22.33.754,tutorial4,2023.1.3,60.25395838
-50,x,31,0,124,0,,,,,365.150881,366.1512911,366.1512911,366.1512911,366.1512911,366.1512911,367.1509397,367.1509397,x,1,0.589495,None,2,1,2023-10-09_11h22.33.754,tutorial4,2023.1.3,60.25395838
150,v,31,1,125,1,,,,,367.7672039,368.7673186,368.7673186,368.7673186,368.7673186,368.7673186,369.7675519,369.7675519,v,1,0.4454401,None,2,1,2023-10-09_11h22.33.754,tutorial4,2023.1.3,60.25395838
50,c,31,2,126,2,,,,,370.2340908,371.2342234,371.2342234,371.2342234,371.2342234,371.2342234,372.2342555,372.2342555,c,1,0.4552184,None,2,1,2023-10-09_11h22.33.754,tutorial4,2023.1.3,60.25395838
-150,z,31,3,127,3,,,,,372.7171241,373.7176145,373.7176145,373.7176145,373.7176145,373.7176145,374.717521,374.717521,z,1,1.0303342,None,2,1,2023-10-09_11h22.33.754,tutorial4,2023.1.3,60.25395838
-50,x,32,0,128,0,,,,,375.7671948,376.7677083,376.7677083,376.7677083,376.7677083,376.7677083,377.7674453,377.7674453,x,1,0.6325242,None,2,1,2023-10-09_11h22.33.754,tutorial4,2023.1.3,60.25395838
150,v,32,1,129,1,,,,,378.417423,379.4168501,379.4168501,379.4168501,379.4168501,379.4168501,380.4172685,380.4172685,v,1,0.858115,None,2,1,2023-10-09_11h22.33.754,tutorial4,2023.1.3,60.25395838
50,c,32,2,130,2,,,,,381.3005768,382.300607,382.300607,382.300607,382.300607,382.300607,383.3001352,383.3001352,c,1,0.5770525,None,2,1,2023-10-09_11h22.33.754,tutorial4,2023.1.3,60.25395838
-150,z,32,3,131,3,,,,,383.9003288,384.900177,384.900177,384.900177,384.900177,384.900177,385.9008088,385.9008088,z,1,0.4537673,None,2,1,2023-10-09_11h22.33.754,tutorial4,2023.1.3,60.25395838
-50,x,33,0,132,0,,,,,386.3832784,387.3835396,387.3835396,387.3835396,387.3835396,387.3835396,388.3835614,388.3835614,x,1,0.4192394,None,2,1,2023-10-09_11h22.33.754,tutorial4,2023.1.3,60.25395838
150,v,33,1,133,1,,,,,388.8330906,389.8334732,389.8334732,389.8334732,389.8334732,389.8334732,390.8330337,390.8330337,v,1,0.3232934,None,2,1,2023-10-09_11h22.33.754,tutorial4,2023.1.3,60.25395838
50,c,33,2,134,2,,,,,391.1836652,392.1830251,392.1830251,392.1830251,392.1830251,392.1830251,393.1833435,393.1833435,c,1,0.3633191,None,2,1,2023-10-09_11h22.33.754,tutorial4,2023.1.3,60.25395838
-150,z,33,3,135,3,,,,,393.5661915,394.5664861,394.5664861,394.5664861,394.5664861,394.5664861,395.5665658,395.5665658,z,1,0.4146868,None,2,1,2023-10-09_11h22.33.754,tutorial4,2023.1.3,60.25395838
-50,x,34,0,136,0,,,,,395.9998857,396.9999113,396.9999113,396.9999113,396.9999113,396.9999113,397.9999037,397.9999037,x,1,0.5165043,None,2,1,2023-10-09_11h22.33.754,tutorial4,2023.1.3,60.25395838
150,v,34,1,137,1,,,,,398.5324231,399.5328434,399.5328434,399.5328434,399.5328434,399.5328434,400.5321766,400.5321766,v,1,0.3624569,None,2,1,2023-10-09_11h22.33.754,tutorial4,2023.1.3,60.25395838
50,c,34,2,138,2,,,,,400.9157824,401.916192,401.916192,401.916192,401.916192,401.916192,402.916098,402.916098,c,1,0.3491876,None,2,1,2023-10-09_11h22.33.754,tutorial4,2023.1.3,60.25395838
-150,z,34,3,139,3,,,,,403.28235,404.2827731,404.2827731,404.2827731,404.2827731,404.2827731,405.2825808,405.2825808,z,1,0.4373947,None,2,1,2023-10-09_11h22.33.754,tutorial4,2023.1.3,60.25395838
-50,x,35,0,140,0,,,,,405.7486964,406.7490232,406.7490232,406.7490232,406.7490232,406.7490232,407.7492181,407.7492181,x,1,0.3750884,None,2,1,2023-10-09_11h22.33.754,tutorial4,2023.1.3,60.25395838
150,v,35,1,141,1,,,,,408.1490608,409.1491561,409.1491561,409.1491561,409.1491561,409.1491561,410.1490593,410.1490593,v,1,0.555463,None,2,1,2023-10-09_11h22.33.754,tutorial4,2023.1.3,60.25395838
50,c,35,2,142,2,,,,,410.7320747,411.7319515,411.7319515,411.7319515,411.7319515,411.7319515,412.7321494,412.7321494,c,1,0.4817986,None,2,1,2023-10-09_11h22.33.754,tutorial4,2023.1.3,60.25395838
-150,z,35,3,143,3,,,,,413.2316991,414.2323614,414.2323614,414.2323614,414.2323614,414.2323614,415.2313702,415.2313702,z,1,0.4321942,None,2,1,2023-10-09_11h22.33.754,tutorial4,2023.1.3,60.25395838
-50,x,36,0,144,0,,,,,415.6818198,416.6818394,416.6818394,416.6818394,416.6818394,416.6818394,417.6817952,417.6817952,x,1,0.5070093,None,2,1,2023-10-09_11h22.33.754,tutorial4,2023.1.3,60.25395838
150,v,36,1,145,1,,,,,418.2150625,419.2154184,419.2154184,419.2154184,419.2154184,419.2154184,420.2150903,420.2150903,v,1,0.4541524,None,2,1,2023-10-09_11h22.33.754,tutorial4,2023.1.3,60.25395838
50,c,36,2,146,2,,,,,420.698369,421.6979553,421.6979553,421.6979553,421.6979553,421.6979553,422.6986507,422.6986507,c,1,0.5030479,None,2,1,2023-10-09_11h22.33.754,tutorial4,2023.1.3,60.25395838
-150,z,36,3,147,3,,,,,423.2315854,424.2316967,424.2316967,424.2316967,424.2316967,424.2316967,425.2314838,425.2314838,z,1,0.5102033,None,2,1,2023-10-09_11h22.33.754,tutorial4,2023.1.3,60.25395838
-50,x,37,0,148,0,,,,,425.7648053,426.7648361,426.7648361,426.7648361,426.7648361,426.7648361,427.7647761,427.7647761,x,1,0.4492682,None,2,1,2023-10-09_11h22.33.754,tutorial4,2023.1.3,60.25395838
150,v,37,1,149,1,,,,,428.2311573,429.2312601,429.2312601,429.2312601,429.2312601,429.2312601,430.231332,430.231332,v,1,0.4985603,None,2,1,2023-10-09_11h22.33.754,tutorial4,2023.1.3,60.25395838
50,c,37,2,150,2,,,,,430.748271,431.7479391,431.7479391,431.7479391,431.7479391,431.7479391,432.7480281,432.7480281,c,1,0.4550227,None,2,1,2023-10-09_11h22.33.754,tutorial4,2023.1.3,60.25395838
-150,z,37,3,151,3,,,,,433.2309651,434.2311981,434.2311981,434.2311981,434.2311981,434.2311981,435.2309719,435.2309719,z,1,0.5900992,None,2,1,2023-10-09_11h22.33.754,tutorial4,2023.1.3,60.25395838
-50,x,38,0,152,0,,,,,435.8478232,436.8477309,436.8477309,436.8477309,436.8477309,436.8477309,437.8477392,437.8477392,x,1,0.4546087,None,2,1,2023-10-09_11h22.33.754,tutorial4,2023.1.3,60.25395838
150,v,38,1,153,1,,,,,438.3302751,439.3307744,439.3307744,439.3307744,439.3307744,439.3307744,440.3309277,440.3309277,v,1,0.4510313,None,2,1,2023-10-09_11h22.33.754,tutorial4,2023.1.3,60.25395838
50,c,38,2,154,2,,,,,440.8141893,441.8143578,441.8143578,441.8143578,441.8143578,441.8143578,442.8136636,442.8136636,c,1,0.4834212,None,2,1,2023-10-09_11h22.33.754,tutorial4,2023.1.3,60.25395838
-150,z,38,3,155,3,,,,,443.3137584,444.3141402,444.3141402,444.3141402,444.3141402,444.3141402,445.3146202,445.3146202,z,1,0.5233592,None,2,1,2023-10-09_11h22.33.754,tutorial4,2023.1.3,60.25395838
-50,x,39,0,156,0,,,,,445.8633755,446.8636735,446.8636735,446.8636735,446.8636735,446.8636735,447.8637305,447.8637305,x,1,0.5957796,None,2,1,2023-10-09_11h22.33.754,tutorial4,2023.1.3,60.25395838
150,v,39,1,157,1,,,,,448.4800927,449.4799442,449.4799442,449.4799442,449.4799442,449.4799442,450.480226,450.480226,v,1,0.4148663,None,2,1,2023-10-09_11h22.33.754,tutorial4,2023.1.3,60.25395838
50,c,39,2,158,2,,,,,450.913441,451.9136961,451.9136961,451.9136961,451.9136961,451.9136961,452.9135661,452.9135661,c,1,0.5778958,None,2,1,2023-10-09_11h22.33.754,tutorial4,2023.1.3,60.25395838
-150,z,39,3,159,3,,,,,453.5135139,454.5134162,454.5134162,454.5134162,454.5134162,454.5134162,455.5134638,455.5134638,z,1,0.460474,None,2,1,2023-10-09_11h22.33.754,tutorial4,2023.1.3,60.25395838
-50,x,40,0,160,0,,,,,455.9961546,456.9966201,456.9966201,456.9966201,456.9966201,456.9966201,457.9960949,457.9960949,x,1,0.5546437,None,2,1,2023-10-09_11h22.33.754,tutorial4,2023.1.3,60.25395838
150,v,40,1,161,1,,,,,458.5796527,459.5797059,459.5797059,459.5797059,459.5797059,459.5797059,460.5795695,460.5795695,v,1,0.5078426,None,2,1,2023-10-09_11h22.33.754,tutorial4,2023.1.3,60.25395838
50,c,40,2,162,2,,,,,461.1131128,462.1130384,462.1130384,462.1130384,462.1130384,462.1130384,463.1128879,463.1128879,c,1,0.5082813,None,2,1,2023-10-09_11h22.33.754,tutorial4,2023.1.3,60.25395838
-150,z,40,3,163,3,,,,,463.6462588,464.6466604,464.6466604,464.6466604,464.6466604,464.6466604,465.6463504,465.6463504,z,1,0.4279988,None,2,1,2023-10-09_11h22.33.754,tutorial4,2023.1.3,60.25395838
-50,x,41,0,164,0,,,,,466.096256,467.0960971,467.0960971,467.0960971,467.0960971,467.0960971,468.0955106,468.0955106,x,1,0.8336368,None,2,1,2023-10-09_11h22.33.754,tutorial4,2023.1.3,60.25395838
150,v,41,1,165,1,,,,,468.9460925,469.9458958,469.9458958,469.9458958,469.9458958,469.9458958,470.9461278,470.9461278,v,1,0.5656279,None,2,1,2023-10-09_11h22.33.754,tutorial4,2023.1.3,60.25395838
50,c,41,2,166,2,,,,,471.5288865,472.5304794,472.5304794,472.5304794,472.5304794,472.5304794,473.528631,473.528631,c,1,0.4388461,None,2,1,2023-10-09_11h22.33.754,tutorial4,2023.1.3,60.25395838
-150,z,41,3,167,3,,,,,473.9958463,474.99595,474.99595,474.99595,474.99595,474.99595,475.9959136,475.9959136,z,1,0.4860277,None,2,1,2023-10-09_11h22.33.754,tutorial4,2023.1.3,60.25395838
-50,x,42,0,168,0,,,,,476.5119942,477.5123506,477.5123506,477.5123506,477.5123506,477.5123506,478.5123135,478.5123135,x,1,0.4883624,None,2,1,2023-10-09_11h22.33.754,tutorial4,2023.1.3,60.25395838
150,v,42,1,169,1,,,,,479.0282534,480.0286665,480.0286665,480.0286665,480.0286665,480.0286665,481.0288053,481.0288053,v,1,0.4295507,None,2,1,2023-10-09_11h22.33.754,tutorial4,2023.1.3,60.25395838
50,c,42,2,170,2,,,,,481.4785279,482.4784946,482.4784946,482.4784946,482.4784946,482.4784946,483.4788112,483.4788112,c,1,0.3985247,None,2,1,2023-10-09_11h22.33.754,tutorial4,2023.1.3,60.25395838
-150,z,42,3,171,3,,,,,483.8954339,484.8953965,484.8953965,484.8953965,484.8953965,484.8953965,485.8952716,485.8952716,z,1,0.3912146,None,2,1,2023-10-09_11h22.33.754,tutorial4,2023.1.3,60.25395838
-50,x,43,0,172,0,,,,,486.3116317,487.3120139,487.3120139,487.3120139,487.3120139,487.3120139,488.3118037,488.3118037,x,1,0.3797394,None,2,1,2023-10-09_11h22.33.754,tutorial4,2023.1.3,60.25395838
150,v,43,1,173,1,,,,,488.7115129,489.7114705,489.7114705,489.7114705,489.7114705,489.7114705,490.7119866,490.7119866,v,1,0.6191048,None,2,1,2023-10-09_11h22.33.754,tutorial4,2023.1.3,60.25395838
50,c,43,2,174,2,,,,,491.3610182,492.3614877,492.3614877,492.3614877,492.3614877,492.3614877,493.3611932,493.3611932,c,1,0.5193452,None,2,1,2023-10-09_11h22.33.754,tutorial4,2023.1.3,60.25395838
-150,z,43,3,175,3,,,,,493.9109722,494.9114698,494.9114698,494.9114698,494.9114698,494.9114698,495.9115984,495.9115984,z,1,0.6478364,None,2,1,2023-10-09_11h22.33.754,tutorial4,2023.1.3,60.25395838
-50,x,44,0,176,0,,,,,496.5777502,497.5773684,497.5773684,497.5773684,497.5773684,497.5773684,498.5777341,498.5777341,x,1,0.9480949,None,2,1,2023-10-09_11h22.33.754,tutorial4,2023.1.3,60.25395838
150,v,44,1,177,1,,,,,499.5445715,500.5447252,500.5447252,500.5447252,500.5447252,500.5447252,501.5445548,501.5445548,v,1,0.5186457,None,2,1,2023-10-09_11h22.33.754,tutorial4,2023.1.3,60.25395838
50,c,44,2,178,2,,,,,502.0943427,503.0946602,503.0946602,503.0946602,503.0946602,503.0946602,504.0943231,504.0943231,c,1,0.4233608,None,2,1,2023-10-09_11h22.33.754,tutorial4,2023.1.3,60.25395838
-150,z,44,3,179,3,,,,,504.5441506,505.5443816,505.5443816,505.5443816,505.5443816,505.5443816,506.5437013,506.5437013,z,1,0.6018702,None,2,1,2023-10-09_11h22.33.754,tutorial4,2023.1.3,60.25395838
-50,x,45,0,180,0,,,,,507.1767898,508.1767948,508.1767948,508.1767948,508.1767948,508.1767948,509.1768222,509.1768222,x,1,0.956904,None,2,1,2023-10-09_11h22.33.754,tutorial4,2023.1.3,60.25395838
150,v,45,1,181,1,,,,,510.1607048,511.1606656,511.1606656,511.1606656,511.1606656,511.1606656,512.1607349,512.1607349,v,1,0.8066303,None,2,1,2023-10-09_11h22.33.754,tutorial4,2023.1.3,60.25395838
50,c,45,2,182,2,,,,,512.994024,513.9940293,513.9940293,513.9940293,513.9940293,513.9940293,514.9937861,514.9937861,c,1,0.6972209,None,2,1,2023-10-09_11h22.33.754,tutorial4,2023.1.3,60.25395838
-150,z,45,3,183,3,,,,,515.7103826,516.710514,516.710514,516.710514,516.710514,516.710514,517.7105242,517.7105242,z,1,0.6130994,None,2,1,2023-10-09_11h22.33.754,tutorial4,2023.1.3,60.25395838
-50,x,46,0,184,0,,,,,518.3434151,519.3439914,519.3439914,519.3439914,519.3439914,519.3439914,520.3429609,520.3429609,x,1,1.0422253,None,2,1,2023-10-09_11h22.33.754,tutorial4,2023.1.3,60.25395838
150,v,46,1,185,1,,,,,521.4101572,522.4101145,522.4101145,522.4101145,522.4101145,522.4101145,523.4101211,523.4101211,v,1,1.3616132,None,2,1,2023-10-09_11h22.33.754,tutorial4,2023.1.3,60.25395838
50,c,46,2,186,2,,,,,524.7933267,525.7929936,525.7929936,525.7929936,525.7929936,525.7929936,526.793297,526.793297,c,1,0.9094836,None,2,1,2023-10-09_11h22.33.754,tutorial4,2023.1.3,60.25395838
-150,z,46,3,187,3,,,,,527.726316,528.7263596,528.7263596,528.7263596,528.7263596,528.7263596,529.7263176,529.7263176,z,1,0.4806175,None,2,1,2023-10-09_11h22.33.754,tutorial4,2023.1.3,60.25395838
-50,x,47,0,188,0,,,,,530.2257896,531.2262027,531.2262027,531.2262027,531.2262027,531.2262027,532.2261276,532.2261276,x,1,0.8220974,None,2,1,2023-10-09_11h22.33.754,tutorial4,2023.1.3,60.25395838
150,v,47,1,189,1,,,,,533.0761802,534.0755432,534.0755432,534.0755432,534.0755432,534.0755432,535.0759338,535.0759338,v,1,0.996967,None,2,1,2023-10-09_11h22.33.754,tutorial4,2023.1.3,60.25395838
50,c,47,2,190,2,,,,,536.0922691,537.0923797,537.0923797,537.0923797,537.0923797,537.0923797,538.0922552,538.0922552,c,1,0.8657721,None,2,1,2023-10-09_11h22.33.754,tutorial4,2023.1.3,60.25395838
-150,z,47,3,191,3,,,,,538.9756378,539.9759398,539.9759398,539.9759398,539.9759398,539.9759398,540.9756694,540.9756694,z,1,0.6293719,None,2,1,2023-10-09_11h22.33.754,tutorial4,2023.1.3,60.25395838
-50,x,48,0,192,0,,,,,541.625197,542.6253373,542.6253373,542.6253373,542.6253373,542.6253373,543.6253166,543.6253166,x,1,0.9287113,None,2,1,2023-10-09_11h22.33.754,tutorial4,2023.1.3,60.25395838
150,v,48,1,193,1,,,,,544.575634,545.5754913,545.5754913,545.5754913,545.5754913,545.5754913,546.5754745,546.5754745,v,1,0.9017988,None,2,1,2023-10-09_11h22.33.754,tutorial4,2023.1.3,60.25395838
50,c,48,2,194,2,,,,,547.5087626,548.5091056,548.5091056,548.5091056,548.5091056,548.5091056,549.5088516,549.5088516,c,1,0.6160683,None,2,1,2023-10-09_11h22.33.754,tutorial4,2023.1.3,60.25395838
-150,z,48,3,195,3,,,,,550.1418163,551.141988,551.141988,551.141988,551.141988,551.141988,552.142161,552.142161,z,1,0.8219724,None,2,1,2023-10-09_11h22.33.754,tutorial4,2023.1.3,60.25395838
-50,x,49,0,196,0,,,,,552.9916354,553.9919912,553.9919912,553.9919912,553.9919912,553.9919912,554.9917949,554.9917949,x,1,0.8071705,None,2,1,2023-10-09_11h22.33.754,tutorial4,2023.1.3,60.25395838
150,v,49,1,197,1,,,,,555.8251157,556.8253649,556.8253649,556.8253649,556.8253649,556.8253649,557.8249715,557.8249715,v,1,1.0509838,None,2,1,2023-10-09_11h22.33.754,tutorial4,2023.1.3,60.25395838
50,c,49,2,198,2,,,,,558.9079417,559.9081852,559.9081852,559.9081852,559.9081852,559.9081852,560.9081999,560.9081999,c,1,0.6412441,None,2,1,2023-10-09_11h22.33.754,tutorial4,2023.1.3,60.25395838
-150,z,49,3,199,3,,,,,561.5745158,562.5745762,562.5745762,562.5745762,562.5745762,562.5745762,563.574036,563.574036,z,1,0.5235437,None,2,1,2023-10-09_11h22.33.754,tutorial4,2023.1.3,60.25395838
-50,x,,,,,0,0,0,0,564.1239001,565.1241703,565.1241703,565.1241703,565.1241703,565.1241703,566.123912,566.123912,x,1,0.6708601,None,2,1,2023-10-09_11h22.33.754,tutorial4,2023.1.3,60.25395838
150,v,,,,,0,1,1,1,566.8239805,567.8241768,567.8241768,567.8241768,567.8241768,567.8241768,568.8238814,568.8238814,v,1,0.821233,None,2,1,2023-10-09_11h22.33.754,tutorial4,2023.1.3,60.25395838
150,v,,,,,0,2,2,1,569.6741344,570.6742033,570.6742033,570.6742033,570.6742033,570.6742033,571.6740109,571.6740109,v,1,0.6870492,None,2,1,2023-10-09_11h22.33.754,tutorial4,2023.1.3,60.25395838
-50,x,,,,,0,3,3,0,572.3906926,573.3903081,573.3903081,573.3903081,573.3903081,573.3903081,574.3913948,574.3913948,x,1,1.0116304,None,2,1,2023-10-09_11h22.33.754,tutorial4,2023.1.3,60.25395838
150,v,,,,,1,0,4,1,575.4235634,576.4240553,576.4240553,576.4240553,576.4240553,576.4240553,577.4239809,577.4239809,v,1,1.3040662,None,2,1,2023-10-09_11h22.33.754,tutorial4,2023.1.3,60.25395838
-50,x,,,,,1,1,5,0,578.7567827,579.7573402,579.7573402,579.7573402,579.7573402,579.7573402,580.7568057,580.7568057,x,1,1.0033962,None,2,1,2023-10-09_11h22.33.754,tutorial4,2023.1.3,60.25395838
50,c,,,,,1,2,6,2,581.7902755,582.7904406,582.7904406,582.7904406,582.7904406,582.7904406,583.7902755,583.7902755,c,1,0.7541331,None,2,1,2023-10-09_11h22.33.754,tutorial4,2023.1.3,60.25395838
-150,z,,,,,1,3,7,3,584.5733635,585.5735903,585.5735903,585.5735903,585.5735903,585.5735903,586.5734242,586.5734242,z,1,0.8244219,None,2,1,2023-10-09_11h22.33.754,tutorial4,2023.1.3,60.25395838
150,v,,,,,2,0,8,1,587.4233516,588.4233977,588.4233977,588.4233977,588.4233977,588.4233977,589.4228204,589.4228204,v,1,1.0375231,None,2,1,2023-10-09_11h22.33.754,tutorial4,2023.1.3,60.25395838
-50,x,,,,,2,1,9,0,590.4899425,591.4899482,591.4899482,591.4899482,591.4899482,591.4899482,592.4900263,592.4900263,x,1,1.0109203,None,2,1,2023-10-09_11h22.33.754,tutorial4,2023.1.3,60.25395838
-150,z,,,,,2,2,10,3,593.5229267,594.5230537,594.5230537,594.5230537,594.5230537,594.5230537,595.5224131,595.5224131,z,1,0.9351934,None,2,1,2023-10-09_11h22.33.754,tutorial4,2023.1.3,60.25395838
-150,z,,,,,2,3,11,3,596.4890783,597.4896094,597.4896094,597.4896094,597.4896094,597.4896094,598.4895238,598.4895238,z,1,0.8469383,None,2,1,2023-10-09_11h22.33.754,tutorial4,2023.1.3,60.25395838
50,c,,,,,3,0,12,2,599.3560972,600.3561146,600.3561146,600.3561146,600.3561146,600.3561146,601.3563021,601.3563021,c,1,1.8469397,None,2,1,2023-10-09_11h22.33.754,tutorial4,2023.1.3,60.25395838
50,c,,,,,3,1,13,2,603.2224772,604.2225834,604.2225834,604.2225834,604.2225834,604.2225834,605.2225959,605.2225959,c,1,0.7426374,None,2,1,2023-10-09_11h22.33.754,tutorial4,2023.1.3,60.25395838
-150,z,,,,,3,2,14,3,605.9892416,606.9887639,606.9887639,606.9887639,606.9887639,606.9887639,607.9892977,607.9892977,z,1,0.932299,None,2,1,2023-10-09_11h22.33.754,tutorial4,2023.1.3,60.25395838
50,c,,,,,3,3,15,2,608.9390112,609.9386826,609.9386826,609.9386826,609.9386826,609.9386826,610.9390533,610.9390533,c,1,1.5918724,None,2,1,2023-10-09_11h22.33.754,tutorial4,2023.1.3,60.25395838
50,c,,,,,4,0,16,2,612.5549613,613.5549904,613.5549904,613.5549904,613.5549904,613.5549904,614.5553082,614.5553082,c,1,1.4321632,None,2,1,2023-10-09_11h22.33.754,tutorial4,2023.1.3,60.25395838
150,v,,,,,4,1,17,1,616.0050121,617.0051233,617.0051233,617.0051233,617.0051233,617.0051233,618.0050508,618.0050508,v,1,1.1742851,None,2,1,2023-10-09_11h22.33.754,tutorial4,2023.1.3,60.25395838
50,c,,,,,4,2,18,2,619.2052188,620.2048837,620.2048837,620.2048837,620.2048837,620.2048837,621.2049222,621.2049222,c,1,0.7068553,None,2,1,2023-10-09_11h22.33.754,tutorial4,2023.1.3,60.25395838
150,v,,,,,4,3,19,1,621.9383439,622.93835,622.93835,622.93835,622.93835,622.93835,623.9377345,623.9377345,v,1,0.8142453,None,2,1,2023-10-09_11h22.33.754,tutorial4,2023.1.3,60.25395838
-150,z,,,,,5,0,20,3,624.7709719,625.7713651,625.7713651,625.7713651,625.7713651,625.7713651,626.7715293,626.7715293,z,1,1.1120295,None,2,1,2023-10-09_11h22.33.754,tutorial4,2023.1.3,60.25395838
-50,x,,,,,5,1,21,0,627.9046343,628.9048823,628.9048823,628.9048823,628.9048823,628.9048823,629.9050309,629.9050309,x,1,0.7541664,None,2,1,2023-10-09_11h22.33.754,tutorial4,2023.1.3,60.25395838
-50,x,,,,,5,2,22,0,630.6878733,631.6877645,631.6877645,631.6877645,631.6877645,631.6877645,632.6879058,632.6879058,x,1,0.7359976,None,2,1,2023-10-09_11h22.33.754,tutorial4,2023.1.3,60.25395838
-150,z,,,,,5,3,23,3,633.4542455,634.4538518,634.4538518,634.4538518,634.4538518,634.4538518,635.4545625,635.4545625,z,1,0.817925,None,2,1,2023-10-09_11h22.33.754,tutorial4,2023.1.3,60.25395838
-50,x,,,,,6,0,24,0,636.3044516,637.3042825,637.3042825,637.3042825,637.3042825,637.3042825,638.304693,638.304693,x,1,0.6650879,None,2,1,2023-10-09_11h22.33.754,tutorial4,2023.1.3,60.25395838
50,c,,,,,6,1,25,2,638.9873368,639.9873095,639.9873095,639.9873095,639.9873095,639.9873095,640.9875944,640.9875944,c,1,0.9660488,None,2,1,2023-10-09_11h22.33.754,tutorial4,2023.1.3,60.25395838
-50,x,,,,,6,2,26,0,641.9700335,642.9707072,642.9707072,642.9707072,642.9707072,642.9707072,643.9702771,643.9702771,x,1,0.9089459,None,2,1,2023-10-09_11h22.33.754,tutorial4,2023.1.3,60.25395838
-50,x,,,,,6,3,27,0,644.9036855,645.9038433,645.9038433,645.9038433,645.9038433,645.9038433,646.9039536,646.9039536,x,1,0.7913176,None,2,1,2023-10-09_11h22.33.754,tutorial4,2023.1.3,60.25395838
50,c,,,,,7,0,28,2,647.7199353,648.7199703,648.7199703,648.7199703,648.7199703,648.7199703,649.7197722,649.7197722,c,1,0.7111478,None,2,1,2023-10-09_11h22.33.754,tutorial4,2023.1.3,60.25395838
-50,x,,,,,7,1,29,0,650.4537882,651.4533563,651.4533563,651.4533563,651.4533563,651.4533563,652.4536685,652.4536685,x,1,0.959224,None,2,1,2023-10-09_11h22.33.754,tutorial4,2023.1.3,60.25395838
50,c,,,,,7,2,30,2,653.4363909,654.4362188,654.4362188,654.4362188,654.4362188,654.4362188,655.4364234,655.4364234,c,1,0.9112456,None,2,1,2023-10-09_11h22.33.754,tutorial4,2023.1.3,60.25395838
50,c,,,,,7,3,31,2,656.3694544,657.3698939,657.3698939,657.3698939,657.3698939,657.3698939,658.3699445,658.3699445,c,1,0.9354555,None,2,1,2023-10-09_11h22.33.754,tutorial4,2023.1.3,60.25395838
-150,z,,,,,8,0,32,3,659.3365236,660.3366692,660.3366692,660.3366692,660.3366692,660.3366692,661.3365048,661.3365048,z,1,0.8232894,None,2,1,2023-10-09_11h22.33.754,tutorial4,2023.1.3,60.25395838
-50,x,,,,,8,1,33,0,662.1858338,663.186589,663.186589,663.186589,663.186589,663.186589,664.1865392,664.1865392,x,1,0.6055799,None,2,1,2023-10-09_11h22.33.754,tutorial4,2023.1.3,60.25395838
50,c,,,,,8,2,34,2,664.8192386,665.8195617,665.8195617,665.8195617,665.8195617,665.8195617,666.8191265,666.8191265,c,1,0.9273171,None,2,1,2023-10-09_11h22.33.754,tutorial4,2023.1.3,60.25395838
50,c,,,,,8,3,35,2,667.768989,668.7694175,668.7694175,668.7694175,668.7694175,668.7694175,669.7689502,669.7689502,c,1,0.7028624,None,2,1,2023-10-09_11h22.33.754,tutorial4,2023.1.3,60.25395838
-50,x,,,,,9,0,36,0,670.5028209,671.5027238,671.5027238,671.5027238,671.5027238,671.5027238,672.5019899,672.5019899,x,1,0.7257859,None,2,1,2023-10-09_11h22.33.754,tutorial4,2023.1.3,60.25395838
150,v,,,,,9,1,37,1,673.2523608,674.2526014,674.2526014,674.2526014,674.2526014,674.2526014,675.2526126,675.2526126,v,1,1.1439469,None,2,1,2023-10-09_11h22.33.754,tutorial4,2023.1.3,60.25395838
50,c,,,,,9,2,38,2,676.4191493,677.4187658,677.4187658,677.4187658,677.4187658,677.4187658,678.4188105,678.4188105,c,1,0.5741716,None,2,1,2023-10-09_11h22.33.754,tutorial4,2023.1.3,60.25395838
-50,x,,,,,9,3,39,0,679.0185126,680.0187367,680.0187367,680.0187367,680.0187367,680.0187367,681.018547,681.018547,x,1,0.5704707,None,2,1,2023-10-09_11h22.33.754,tutorial4,2023.1.3,60.25395838
50,c,,,,,10,0,40,2,681.6184276,682.618621,682.618621,682.618621,682.618621,682.618621,683.618491,683.618491,c,1,0.8317604,None,2,1,2023-10-09_11h22.33.754,tutorial4,2023.1.3,60.25395838
-150,z,,,,,10,1,41,3,684.4684481,685.4683651,685.4683651,685.4683651,685.4683651,685.4683651,686.4685193,686.4685193,z,1,0.8181975,None,2,1,2023-10-09_11h22.33.754,tutorial4,2023.1.3,60.25395838
-150,z,,,,,10,2,42,3,687.3177358,688.3184717,688.3184717,688.3184717,688.3184717,688.3184717,689.3183503,689.3183503,z,1,0.7861913,None,2,1,2023-10-09_11h22.33.754,tutorial4,2023.1.3,60.25395838
-150,z,,,,,10,3,43,3,690.1349441,691.134834,691.134834,691.134834,691.134834,691.134834,692.1347036,692.1347036,z,1,0.740877,None,2,1,2023-10-09_11h22.33.754,tutorial4,2023.1.3,60.25395838
-150,z,,,,,11,0,44,3,692.9015441,693.9015203,693.9015203,693.9015203,693.9015203,693.9015203,694.901071,694.901071,z,1,0.7047418,None,2,1,2023-10-09_11h22.33.754,tutorial4,2023.1.3,60.25395838
-150,z,,,,,11,1,45,3,695.6346418,696.6343392,696.6343392,696.6343392,696.6343392,696.6343392,697.6345069,697.6345069,z,1,0.4551411,None,2,1,2023-10-09_11h22.33.754,tutorial4,2023.1.3,60.25395838
50,c,,,,,11,2,46,2,698.117621,699.117667,699.117667,699.117667,699.117667,699.117667,700.1177516,700.1177516,c,1,2.0465334,None,2,1,2023-10-09_11h22.33.754,tutorial4,2023.1.3,60.25395838
-50,x,,,,,11,3,47,0,702.1841166,703.1840983,703.1840983,703.1840983,703.1840983,703.1840983,704.1845926,704.1845926,x,1,0.9113457,None,2,1,2023-10-09_11h22.33.754,tutorial4,2023.1.3,60.25395838
-50,x,,,,,12,0,48,0,705.117476,706.1174203,706.1174203,706.1174203,706.1174203,706.1174203,707.1174066,707.1174066,x,1,1.0898706,None,2,1,2023-10-09_11h22.33.754,tutorial4,2023.1.3,60.25395838
-150,z,,,,,12,1,49,3,708.2341656,709.233529,709.233529,709.233529,709.233529,709.233529,710.2339344,710.2339344,z,1,0.5986149,None,2,1,2023-10-09_11h22.33.754,tutorial4,2023.1.3,60.25395838
50,c,,,,,12,2,50,2,710.8503437,711.8507666,711.8507666,711.8507666,711.8507666,711.8507666,712.8504397,712.8504397,c,1,0.8989236,None,2,1,2023-10-09_11h22.33.754,tutorial4,2023.1.3,60.25395838
-50,x,,,,,12,3,51,0,713.7668543,714.7669854,714.7669854,714.7669854,714.7669854,714.7669854,715.7669494,715.7669494,x,1,0.7586877,None,2,1,2023-10-09_11h22.33.754,tutorial4,2023.1.3,60.25395838
-50,x,,,,,13,0,52,0,716.5498007,717.5499757,717.5499757,717.5499757,717.5499757,717.5499757,718.5503884,718.5503884,x,1,0.9175524,None,2,1,2023-10-09_11h22.33.754,tutorial4,2023.1.3,60.25395838
50,c,,,,,13,1,53,2,719.500353,720.4997344,720.4997344,720.4997344,720.4997344,720.4997344,721.4995073,721.4995073,c,1,1.0890664,None,2,1,2023-10-09_11h22.33.754,tutorial4,2023.1.3,60.25395838
-150,z,,,,,13,2,54,3,722.6163796,723.6167709,723.6167709,723.6167709,723.6167709,723.6167709,724.6166613,724.6166613,z,1,0.8506925,None,2,1,2023-10-09_11h22.33.754,tutorial4,2023.1.3,60.25395838
-150,z,,,,,13,3,55,3,725.4999263,726.4999814,726.4999814,726.4999814,726.4999814,726.4999814,727.4997167,727.4997167,z,1,0.6039024,None,2,1,2023-10-09_11h22.33.754,tutorial4,2023.1.3,60.25395838
-150,z,,,,,14,0,56,3,728.1327125,729.1333208,729.1161714,729.1161714,729.1161714,729.1161714,730.1162416,730.1162416,z,1,0.5255909,None,2,1,2023-10-09_11h22.33.754,tutorial4,2023.1.3,60.25395838
150,v,,,,,14,1,57,1,730.666257,731.6662497,731.6662497,731.6662497,731.6662497,731.6662497,732.6661927,732.6661927,v,1,1.0817782,None,2,1,2023-10-09_11h22.33.754,tutorial4,2023.1.3,60.25395838
-150,z,,,,,14,2,58,3,733.7658457,734.7659924,734.7659924,734.7659924,734.7659924,734.7659924,735.7653878,735.7653878,z,1,0.8659725,None,2,1,2023-10-09_11h22.33.754,tutorial4,2023.1.3,60.25395838
50,c,,,,,14,3,59,2,736.6487213,737.6493588,737.6493588,737.6493588,737.6493588,737.6493588,738.6490133,738.6490133,c,1,2.1384326,None,2,1,2023-10-09_11h22.33.754,tutorial4,2023.1.3,60.25395838
50,c,,,,,15,0,60,2,740.8157609,741.8154871,741.8154871,741.8154871,741.8154871,741.8154871,742.8151074,742.8151074,c,1,0.9633591,None,2,1,2023-10-09_11h22.33.754,tutorial4,2023.1.3,60.25395838
-150,z,,,,,15,1,61,3,743.7988063,744.7989179,744.7989179,744.7989179,744.7989179,744.7989179,745.7989306,745.7989306,z,1,0.9252584,None,2,1,2023-10-09_11h22.33.754,tutorial4,2023.1.3,60.25395838
-150,z,,,,,15,2,62,3,746.7482359,747.7490911,747.7490911,747.7490911,747.7490911,747.7490911,748.7489509,748.7489509,z,1,0.7054685,None,2,1,2023-10-09_11h22.33.754,tutorial4,2023.1.3,60.25395838
-50,x,,,,,15,3,63,0,749.4814847,750.4821654,750.4821654,750.4821654,750.4821654,750.4821654,751.4814105,751.4814105,x,1,0.7280475,None,2,1,2023-10-09_11h22.33.754,tutorial4,2023.1.3,60.25395838
-150,z,,,,,16,0,64,3,752.2313716,753.2314496,753.2314496,753.2314496,753.2314496,753.2314496,754.2320049,754.2320049,z,1,0.6743448,None,2,1,2023-10-09_11h22.33.754,tutorial4,2023.1.3,60.25395838
50,c,,,,,16,1,65,2,754.9313096,755.9315629,755.9315629,755.9315629,755.9315629,755.9315629,756.9318931,756.9318931,c,1,1.8197295,None,2,1,2023-10-09_11h22.33.754,tutorial4,2023.1.3,60.25395838
-50,x,,,,,16,2,66,0,758.7814659,759.7814795,759.7814795,759.7814795,759.7814795,759.7814795,760.7817114,760.7817114,x,1,0.7540574,None,2,1,2023-10-09_11h22.33.754,tutorial4,2023.1.3,60.25395838
50,c,,,,,16,3,67,2,761.5655321,762.5642514,762.5642514,762.5642514,762.5642514,762.5642514,763.5645384,763.5645384,c,1,0.9666526,None,2,1,2023-10-09_11h22.33.754,tutorial4,2023.1.3,60.25395838
150,v,,,,,17,0,68,1,764.5478811,765.5478565,765.5478565,765.5478565,765.5478565,765.5478565,766.5475088,766.5475088,v,1,0.8317871,None,2,1,2023-10-09_11h22.33.754,tutorial4,2023.1.3,60.25395838
50,c,,,,,17,1,69,2,767.3974994,768.3974175,768.3974175,768.3974175,768.3974175,768.3974175,769.3976119,769.3976119,c,1,0.6973834,None,2,1,2023-10-09_11h22.33.754,tutorial4,2023.1.3,60.25395838
-150,z,,,,,17,2,70,3,770.1140964,771.1141079,771.1141079,771.1141079,771.1141079,771.1141079,772.1141847,772.1141847,z,1,0.8601477,None,2,1,2023-10-09_11h22.33.754,tutorial4,2023.1.3,60.25395838
150,v,,,,,17,3,71,1,772.9970504,773.997428,773.997428,773.997428,773.997428,773.997428,774.997521,774.997521,v,1,0.9949625,None,2,1,2023-10-09_11h22.33.754,tutorial4,2023.1.3,60.25395838
-150,z,,,,,18,0,72,3,776.0137384,777.0139069,777.0139069,777.0139069,777.0139069,777.0139069,778.0139514,778.0139514,z,1,0.9190672,None,2,1,2023-10-09_11h22.33.754,tutorial4,2023.1.3,60.25395838
-50,x,,,,,18,1,73,0,778.9638614,779.9636586,779.9636586,779.9636586,779.9636586,779.9636586,780.9634958,780.9634958,x,1,1.869144,None,2,1,2023-10-09_11h22.33.754,tutorial4,2023.1.3,60.25395838
150,v,,,,,18,2,74,1,782.8636761,783.8630004,783.8630004,783.8630004,783.8630004,783.8630004,784.8630665,784.8630665,v,1,0.9078285,None,2,1,2023-10-09_11h22.33.754,tutorial4,2023.1.3,60.25395838
150,v,,,,,18,3,75,1,785.7966027,786.797028,786.797028,786.797028,786.797028,786.797028,787.7964204,787.7964204,v,1,0.6251886,None,2,1,2023-10-09_11h22.33.754,tutorial4,2023.1.3,60.25395838
-150,z,,,,,19,0,76,3,788.446614,789.4468446,789.4468446,789.4468446,789.4468446,789.4468446,790.446859,790.446859,z,1,1.1346209,None,2,1,2023-10-09_11h22.33.754,tutorial4,2023.1.3,60.25395838
-50,x,,,,,19,1,77,0,791.6128115,792.6129468,792.6129468,792.6129468,792.6129468,792.6129468,793.6129772,793.6129772,x,1,0.6309904,None,2,1,2023-10-09_11h22.33.754,tutorial4,2023.1.3,60.25395838
-50,x,,,,,19,2,78,0,794.2626361,795.2629536,795.2629536,795.2629536,795.2629536,795.2629536,796.2626215,796.2626215,x,1,0.6570191,None,2,1,2023-10-09_11h22.33.754,tutorial4,2023.1.3,60.25395838
150,v,,,,,19,3,79,1,796.946178,797.9463709,797.9463709,797.9463709,797.9463709,797.9463709,798.9464966,798.9464966,v,1,0.9572704,None,2,1,2023-10-09_11h22.33.754,tutorial4,2023.1.3,60.25395838
150,v,,,,,20,0,80,1,799.9290937,800.9293707,800.9293707,800.9293707,800.9293707,800.9293707,801.9288275,801.9288275,v,1,0.6566227,None,2,1,2023-10-09_11h22.33.754,tutorial4,2023.1.3,60.25395838
50,c,,,,,20,1,81,2,802.6122498,803.6125595,803.6125595,803.6125595,803.6125595,803.6125595,804.6126981,804.6126981,c,1,0.8794206,None,2,1,2023-10-09_11h22.33.754,tutorial4,2023.1.3,60.25395838
50,c,,,,,20,2,82,2,805.5123316,806.5120334,806.5120334,806.5120334,806.5120334,806.5120334,807.512317,807.512317,c,1,0.5587627,None,2,1,2023-10-09_11h22.33.754,tutorial4,2023.1.3,60.25395838
-50,x,,,,,20,3,83,0,808.09579,809.0955988,809.0955988,809.0955988,809.0955988,809.0955988,810.0956439,810.0956439,x,1,1.1575232,None,2,1,2023-10-09_11h22.33.754,tutorial4,2023.1.3,60.25395838
50,c,,,,,21,0,84,2,811.2791517,812.2783366,812.2783366,812.2783366,812.2783366,812.2783366,813.2787731,813.2787731,c,1,0.6019585,None,2,1,2023-10-09_11h22.33.754,tutorial4,2023.1.3,60.25395838
-150,z,,,,,21,1,85,3,813.9118797,814.9117361,814.9117361,814.9117361,814.9117361,814.9117361,815.9115463,815.9115463,z,1,0.8133302,None,2,1,2023-10-09_11h22.33.754,tutorial4,2023.1.3,60.25395838
-150,z,,,,,21,2,86,3,816.7452654,817.7453475,817.7453475,817.7453475,817.7453475,817.7453475,818.7453213,818.7453213,z,1,0.495755,None,2,1,2023-10-09_11h22.33.754,tutorial4,2023.1.3,60.25395838
-50,x,,,,,21,3,87,0,819.2617897,820.2614394,820.2614394,820.2614394,820.2614394,820.2614394,821.2616002,821.2616002,x,1,0.6424319,None,2,1,2023-10-09_11h22.33.754,tutorial4,2023.1.3,60.25395838
150,v,,,,,22,0,88,1,821.9282599,822.9282329,822.9282329,822.9282329,822.9282329,822.9282329,823.9281497,823.9281497,v,1,0.9628127,None,2,1,2023-10-09_11h22.33.754,tutorial4,2023.1.3,60.25395838
-150,z,,,,,22,1,89,3,824.9109401,825.9114601,825.9114601,825.9114601,825.9114601,825.9114601,826.91145,826.91145,z,1,0.7858874,None,2,1,2023-10-09_11h22.33.754,tutorial4,2023.1.3,60.25395838
-50,x,,,,,22,2,90,0,827.7283775,828.7282932,828.7282932,828.7282932,828.7282932,828.7282932,829.7274768,829.7274768,x,1,0.4594975,None,2,1,2023-10-09_11h22.33.754,tutorial4,2023.1.3,60.25395838
-150,z,,,,,22,3,91,3,830.2108972,831.2107058,831.2107058,831.2107058,831.2107058,831.2107058,832.2113762,832.2113762,z,1,0.52991,None,2,1,2023-10-09_11h22.33.754,tutorial4,2023.1.3,60.25395838
50,c,,,,,23,0,92,2,832.761094,833.7607464,833.7607464,833.7607464,833.7607464,833.7607464,834.760901,834.760901,c,1,2.1219866,None,2,1,2023-10-09_11h22.33.754,tutorial4,2023.1.3,60.25395838
150,v,,,,,23,1,93,1,836.910431,837.9108553,837.9108553,837.9108553,837.9108553,837.9108553,838.9109062,838.9109062,v,1,0.9452355,None,2,1,2023-10-09_11h22.33.754,tutorial4,2023.1.3,60.25395838
-150,z,,,,,23,2,94,3,839.877563,840.8772003,840.8772003,840.8772003,840.8772003,840.8772003,841.8775792,841.8775792,z,1,0.8293877,None,2,1,2023-10-09_11h22.33.754,tutorial4,2023.1.3,60.25395838
-150,z,,,,,23,3,95,3,842.7274301,843.7273363,843.7273363,843.7273363,843.7273363,843.7273363,844.727229,844.727229,z,1,0.4955541,None,2,1,2023-10-09_11h22.33.754,tutorial4,2023.1.3,60.25395838
50,c,,,,,24,0,96,2,845.2439566,846.2440152,846.2440152,846.2440152,846.2440152,846.2440152,847.2437474,847.2437474,c,1,1.5539078,None,2,1,2023-10-09_11h22.33.754,tutorial4,2023.1.3,60.25395838
150,v,,,,,24,1,97,1,848.8271633,849.8270256,849.8270256,849.8270256,849.8270256,849.8270256,850.8265316,850.8265316,v,1,0.7161784,None,2,1,2023-10-09_11h22.33.754,tutorial4,2023.1.3,60.25395838
-150,z,,,,,24,2,98,3,851.5600164,852.5598053,852.5598053,852.5598053,852.5598053,852.5598053,853.5600839,853.5600839,z,1,0.8734592,None,2,1,2023-10-09_11h22.33.754,tutorial4,2023.1.3,60.25395838
50,c,,,,,24,3,99,2,854.4598306,855.4598435,855.4598435,855.4598435,855.4598435,855.4598435,856.4594039,856.4594039,c,1,1.2171897,None,2,1,2023-10-09_11h22.33.754,tutorial4,2023.1.3,60.25395838
150,v,,,,,25,0,100,1,857.6929958,858.6929367,858.6929367,858.6929367,858.6929367,858.6929367,859.6931661,859.6931661,v,1,0.7109947,None,2,1,2023-10-09_11h22.33.754,tutorial4,2023.1.3,60.25395838
150,v,,,,,25,1,101,1,860.4265761,861.4266441,861.4266441,861.4266441,861.4266441,861.4266441,862.4265711,862.4265711,v,1,0.5991941,None,2,1,2023-10-09_11h22.33.754,tutorial4,2023.1.3,60.25395838
-50,x,,,,,25,2,102,0,863.0427716,864.0425078,864.0425078,864.0425078,864.0425078,864.0425078,865.0429699,865.0429699,x,1,1.0226958,None,2,1,2023-10-09_11h22.33.754,tutorial4,2023.1.3,60.25395838
150,v,,,,,25,3,103,1,866.0922249,867.0930222,867.0930222,867.0930222,867.0930222,867.0930222,868.0922651,868.0922651,v,1,0.913605,None,2,1,2023-10-09_11h22.33.754,tutorial4,2023.1.3,60.25395838
-150,z,,,,,26,0,104,3,869.0258285,870.0264325,870.0264325,870.0264325,870.0264325,870.0264325,871.0258169,871.0258169,z,1,0.9578548,None,2,1,2023-10-09_11h22.33.754,tutorial4,2023.1.3,60.25395838
150,v,,,,,26,1,105,1,872.0091737,873.0089906,873.0089906,873.0089906,873.0089906,873.0089906,874.0090595,874.0090595,v,1,1.2349857,None,2,1,2023-10-09_11h22.33.754,tutorial4,2023.1.3,60.25395838
50,c,,,,,26,2,106,2,875.2758864,876.2760883,876.2760883,876.2760883,876.2760883,876.2760883,877.2751463,877.2751463,c,1,0.7097358,None,2,1,2023-10-09_11h22.33.754,tutorial4,2023.1.3,60.25395838
-150,z,,,,,26,3,107,3,878.0087045,879.0084821,879.0084821,879.0084821,879.0084821,879.0084821,880.0082481,880.0082481,z,1,0.8793999,None,2,1,2023-10-09_11h22.33.754,tutorial4,2023.1.3,60.25395838
-150,z,,,,,27,0,108,3,880.9082988,881.9085099,881.9085099,881.9085099,881.9085099,881.9085099,882.9084491,882.9084491,z,1,0.5935642,None,2,1,2023-10-09_11h22.33.754,tutorial4,2023.1.3,60.25395838
-50,x,,,,,27,1,109,0,883.5249241,884.5255018,884.5255018,884.5255018,884.5255018,884.5255018,885.5250299,885.5250299,x,1,0.6797365,None,2,1,2023-10-09_11h22.33.754,tutorial4,2023.1.3,60.25395838
150,v,,,,,27,2,110,1,886.2247611,887.2254809,887.2254809,887.2254809,887.2254809,887.2254809,888.2247908,888.2247908,v,1,0.8982256,None,2,1,2023-10-09_11h22.33.754,tutorial4,2023.1.3,60.25395838
-150,z,,,,,27,3,111,3,889.1415327,890.1410857,890.1410857,890.1410857,890.1410857,890.1410857,891.1417021,891.1417021,z,1,0.9429958,None,2,1,2023-10-09_11h22.33.754,tutorial4,2023.1.3,60.25395838
-50,x,,,,,28,0,112,0,892.1077063,893.1079529,893.1079529,893.1079529,893.1079529,893.1079529,894.1078956,894.1078956,x,1,0.4428519,None,2,1,2023-10-09_11h22.33.754,tutorial4,2023.1.3,60.25395838
150,v,,,,,28,1,113,1,894.5745819,895.5746934,895.5746934,895.5746934,895.5746934,895.5746934,896.5748311,896.5748311,v,1,0.9144181,None,2,1,2023-10-09_11h22.33.754,tutorial4,2023.1.3,60.25395838
-50,x,,,,,28,2,114,0,897.5072435,898.5078471,898.5078471,898.5078471,898.5078471,898.5078471,899.507701,899.507701,x,1,1.1567169,None,2,1,2023-10-09_11h22.33.754,tutorial4,2023.1.3,60.25395838
-150,z,,,,,28,3,115,3,900.691298,901.6903956,901.6903956,901.6903956,901.6903956,901.6903956,902.6909335,902.6909335,z,1,0.8624665,None,2,1,2023-10-09_11h22.33.754,tutorial4,2023.1.3,60.25395838
-150,z,,,,,29,0,116,3,903.5740346,904.5744423,904.5744423,904.5744423,904.5744423,904.5744423,905.5741809,905.5741809,z,1,0.511497,None,2,1,2023-10-09_11h22.33.754,tutorial4,2023.1.3,60.25395838
150,v,,,,,29,1,117,1,906.1069463,907.1076396,907.1076396,907.1076396,907.1076396,907.1076396,908.107424,908.107424,v,1,0.9676167,None,2,1,2023-10-09_11h22.33.754,tutorial4,2023.1.3,60.25395838
150,v,,,,,29,2,118,1,909.1072755,910.106719,910.106719,910.106719,910.106719,910.106719,911.1069346,911.1069346,v,1,0.575615,None,2,1,2023-10-09_11h22.33.754,tutorial4,2023.1.3,60.25395838
-150,z,,,,,29,3,119,3,911.7068751,912.7069519,912.7069519,912.7069519,912.7069519,912.7069519,913.7068468,913.7068468,z,1,0.9052855,None,2,1,2023-10-09_11h22.33.754,tutorial4,2023.1.3,60.25395838
-150,z,,,,,30,0,120,3,914.6403107,915.6406151,915.6406151,915.6406151,915.6406151,915.6406151,916.6397941,916.6397941,z,1,0.5826589,None,2,1,2023-10-09_11h22.33.754,tutorial4,2023.1.3,60.25395838
-150,z,,,,,30,1,121,3,917.2404588,918.2406249,918.2406249,918.2406249,918.2406249,918.2406249,919.2402719,919.2402719,z,1,0.5806445,None,2,1,2023-10-09_11h22.33.754,tutorial4,2023.1.3,60.25395838
-50,x,,,,,30,2,122,0,919.8398665,920.8402973,920.8402973,920.8402973,920.8402973,920.8402973,921.8399983,921.8399983,x,1,0.5673842,None,2,1,2023-10-09_11h22.33.754,tutorial4,2023.1.3,60.25395838
150,v,,,,,30,3,123,1,922.4396947,923.4400282,923.4400282,923.4400282,923.4400282,923.4400282,924.4399261,924.4399261,v,1,0.9981392,None,2,1,2023-10-09_11h22.33.754,tutorial4,2023.1.3,60.25395838
150,v,,,,,31,0,124,1,925.4563391,926.456238,926.456238,926.456238,926.456238,926.456238,927.4564858,927.4564858,v,1,0.4669295,None,2,1,2023-10-09_11h22.33.754,tutorial4,2023.1.3,60.25395838
-50,x,,,,,31,1,125,0,927.939491,928.9397253,928.9397253,928.9397253,928.9397253,928.9397253,929.9393702,929.9393702,x,1,0.8641878,None,2,1,2023-10-09_11h22.33.754,tutorial4,2023.1.3,60.25395838
50,c,,,,,31,2,126,2,930.8223885,931.8222533,931.8222533,931.8222533,931.8222533,931.8222533,932.8229023,932.8229023,c,1,0.6126969,None,2,1,2023-10-09_11h22.33.754,tutorial4,2023.1.3,60.25395838
-50,x,,,,,31,3,127,0,933.4562549,934.4562197,934.4562197,934.4562197,934.4562197,934.4562197,935.4557982,935.4557982,x,1,0.587076,None,2,1,2023-10-09_11h22.33.754,tutorial4,2023.1.3,60.25395838
-50,x,,,,,32,0,128,0,936.0721011,937.0728557,937.0728557,937.0728557,937.0728557,937.0728557,938.0725116,938.0725116,x,1,0.6208508,None,2,1,2023-10-09_11h22.33.754,tutorial4,2023.1.3,60.25395838
50,c,,,,,32,1,129,2,938.7227312,939.7225332,939.7225332,939.7225332,939.7225332,939.7225332,940.7218424,940.7218424,c,1,0.6103327,None,2,1,2023-10-09_11h22.33.754,tutorial4,2023.1.3,60.25395838
150,v,,,,,32,2,130,1,941.3555528,942.3555775,942.3555775,942.3555775,942.3555775,942.3555775,943.3554822,943.3554822,v,1,0.7693794,None,2,1,2023-10-09_11h22.33.754,tutorial4,2023.1.3,60.25395838
150,v,,,,,32,3,131,1,944.1556463,945.1553104,945.1553104,945.1553104,945.1553104,945.1553104,946.1551436,946.1551436,v,1,0.4832032,None,2,1,2023-10-09_11h22.33.754,tutorial4,2023.1.3,60.25395838
-50,x,,,,,33,0,132,0,946.6551208,947.6554376,947.6554376,947.6554376,947.6554376,947.6554376,948.655525,948.655525,x,1,0.8032456,None,2,1,2023-10-09_11h22.33.754,tutorial4,2023.1.3,60.25395838
-50,x,,,,,33,1,133,0,949.4888374,950.4884876,950.4884876,950.4884876,950.4884876,950.4884876,951.4885601,951.4885601,x,1,0.4339096,None,2,1,2023-10-09_11h22.33.754,tutorial4,2023.1.3,60.25395838
-50,x,,,,,33,2,134,0,951.938403,952.9388037,952.9388037,952.9388037,952.9388037,952.9388037,953.9386116,953.9386116,x,1,0.5319061,None,2,1,2023-10-09_11h22.33.754,tutorial4,2023.1.3,60.25395838
-50,x,,,,,33,3,135,0,954.487784,955.4884589,955.4884589,955.4884589,955.4884589,955.4884589,956.4885508,956.4885508,x,1,0.8140076,None,2,1,2023-10-09_11h22.33.754,tutorial4,2023.1.3,60.25395838
150,v,,,,,34,0,136,1,957.3213154,958.3215643,958.3215643,958.3215643,958.3215643,958.3215643,959.3214738,959.3214738,v,1,0.8373574,None,2,1,2023-10-09_11h22.33.754,tutorial4,2023.1.3,60.25395838
50,c,,,,,34,1,137,2,960.1881761,961.1883506,961.1883506,961.1883506,961.1883506,961.1883506,962.1880645,962.1880645,c,1,0.5605003,None,2,1,2023-10-09_11h22.33.754,tutorial4,2023.1.3,60.25395838
-50,x,,,,,34,2,138,0,962.7714975,963.7708246,963.7708246,963.7708246,963.7708246,963.7708246,964.7711014,964.7711014,x,1,0.6878365,None,2,1,2023-10-09_11h22.33.754,tutorial4,2023.1.3,60.25395838
150,v,,,,,34,3,139,1,965.488082,966.4879803,966.4879803,966.4879803,966.4879803,966.4879803,967.4877074,967.4877074,v,1,0.8425034,None,2,1,2023-10-09_11h22.33.754,tutorial4,2023.1.3,60.25395838
-50,x,,,,,35,0,140,0,968.3538793,969.3541194,969.3541194,969.3541194,969.3541194,969.3541194,970.3541991,970.3541991,x,1,0.9024493,None,2,1,2023-10-09_11h22.33.754,tutorial4,2023.1.3,60.25395838
-50,x,,,,,35,1,141,0,971.2869668,972.2877265,972.2877265,972.2877265,972.2877265,972.2877265,973.2874807,973.2874807,x,1,1.0136281,None,2,1,2023-10-09_11h22.33.754,tutorial4,2023.1.3,60.25395838
-150,z,,,,,35,2,142,3,974.3204503,975.3202004,975.3202004,975.3202004,975.3202004,975.3202004,976.3205678,976.3205678,z,1,0.5288732,None,2,1,2023-10-09_11h22.33.754,tutorial4,2023.1.3,60.25395838
-150,z,,,,,35,3,143,3,976.8703602,977.8705774,977.8705774,977.8705774,977.8705774,977.8705774,978.8707038,978.8707038,z,1,0.4549829,None,2,1,2023-10-09_11h22.33.754,tutorial4,2023.1.3,60.25395838
50,c,,,,,36,0,144,2,979.3536284,980.3531791,980.3531791,980.3531791,980.3531791,980.3531791,981.3534447,981.3534447,c,1,0.9364063,None,2,1,2023-10-09_11h22.33.754,tutorial4,2023.1.3,60.25395838
50,c,,,,,36,1,145,2,982.3205199,983.3206377,983.3206377,983.3206377,983.3206377,983.3206377,984.3204935,984.3204935,c,1,0.5077394,None,2,1,2023-10-09_11h22.33.754,tutorial4,2023.1.3,60.25395838
150,v,,,,,36,2,146,1,984.8531966,985.8537701,985.8537701,985.8537701,985.8537701,985.8537701,986.853408,986.853408,v,1,0.6415987,None,2,1,2023-10-09_11h22.33.754,tutorial4,2023.1.3,60.25395838
50,c,,,,,36,3,147,2,987.5195357,988.5200168,988.5200168,988.5200168,988.5200168,988.5200168,989.5196545,989.5196545,c,1,0.4366327,None,2,1,2023-10-09_11h22.33.754,tutorial4,2023.1.3,60.25395838
-150,z,,,,,37,0,148,3,989.9868267,990.9863909,990.9863909,990.9863909,990.9863909,990.9863909,991.9866748,991.9866748,z,1,0.9210598,None,2,1,2023-10-09_11h22.33.754,tutorial4,2023.1.3,60.25395838
150,v,,,,,37,1,149,1,992.9366898,993.9361525,993.9361525,993.9361525,993.9361525,993.9361525,994.9363072,994.9363072,v,1,0.8187931,None,2,1,2023-10-09_11h22.33.754,tutorial4,2023.1.3,60.25395838
50,c,,,,,37,2,150,2,995.786011,996.7862137,996.7862137,996.7862137,996.7862137,996.7862137,997.7861133,997.7861133,c,1,0.6830241,None,2,1,2023-10-09_11h22.33.754,tutorial4,2023.1.3,60.25395838
-50,x,,,,,37,3,151,0,998.4857593,999.4863068,999.4863068,999.4863068,999.4863068,999.4863068,1000.486255,1000.486255,x,1,0.7717221,None,2,1,2023-10-09_11h22.33.754,tutorial4,2023.1.3,60.25395838
-50,x,,,,,38,0,152,0,1001.285486,1002.286208,1002.286208,1002.286208,1002.286208,1002.286208,1003.286019,1003.286019,x,1,0.5210755,None,2,1,2023-10-09_11h22.33.754,tutorial4,2023.1.3,60.25395838
50,c,,,,,38,1,153,2,1003.836195,1004.836162,1004.836162,1004.836162,1004.836162,1004.836162,1005.835389,1005.835389,c,1,0.4997642,None,2,1,2023-10-09_11h22.33.754,tutorial4,2023.1.3,60.25395838
-150,z,,,,,38,2,154,3,1006.352341,1007.35232,1007.35232,1007.35232,1007.35232,1007.35232,1008.352412,1008.352412,z,1,0.8716342,None,2,1,2023-10-09_11h22.33.754,tutorial4,2023.1.3,60.25395838
50,c,,,,,38,3,155,2,1009.252285,1010.251874,1010.251874,1010.251874,1010.251874,1010.251874,1011.252268,1011.252268,c,1,0.8300102,None,2,1,2023-10-09_11h22.33.754,tutorial4,2023.1.3,60.25395838
-150,z,,,,,39,0,156,3,1012.101686,1013.102065,1013.102065,1013.102065,1013.102065,1013.102065,1014.101823,1014.101823,z,1,0.7756996,None,2,1,2023-10-09_11h22.33.754,tutorial4,2023.1.3,60.25395838
150,v,,,,,39,1,157,1,1014.901804,1015.901948,1015.901948,1015.901948,1015.901948,1015.901948,1016.901508,1016.901508,v,1,1.0402702,None,2,1,2023-10-09_11h22.33.754,tutorial4,2023.1.3,60.25395838
150,v,,,,,39,2,158,1,1017.968971,1018.968394,1018.968394,1018.968394,1018.968394,1018.968394,1019.968587,1019.968587,v,1,0.6087591,None,2,1,2023-10-09_11h22.33.754,tutorial4,2023.1.3,60.25395838
-50,x,,,,,39,3,159,0,1020.601311,1021.601525,1021.601525,1021.601525,1021.601525,1021.601525,1022.60166,1022.60166,x,1,0.9141566,None,2,1,2023-10-09_11h22.33.754,tutorial4,2023.1.3,60.25395838
50,c,,,,,40,0,160,2,1023.534858,1024.534955,1024.534955,1024.534955,1024.534955,1024.534955,1025.534419,1025.534419,c,1,0.5646794,None,2,1,2023-10-09_11h22.33.754,tutorial4,2023.1.3,60.25395838
150,v,,,,,40,1,161,1,1026.118103,1027.118429,1027.118429,1027.118429,1027.118429,1027.118429,1028.118214,1028.118214,v,1,0.698524,None,2,1,2023-10-09_11h22.33.754,tutorial4,2023.1.3,60.25395838
-150,z,,,,,40,2,162,3,1028.834441,1029.834787,1029.834787,1029.834787,1029.834787,1029.834787,1030.834515,1030.834515,z,1,0.8511936,None,2,1,2023-10-09_11h22.33.754,tutorial4,2023.1.3,60.25395838
50,c,,,,,40,3,163,2,1031.717967,1032.717893,1032.717893,1032.717893,1032.717893,1032.717893,1033.718143,1033.718143,c,1,1.0946474,None,2,1,2023-10-09_11h22.33.754,tutorial4,2023.1.3,60.25395838
-50,x,,,,,41,0,164,0,1034.834376,1035.834379,1035.834379,1035.834379,1035.834379,1035.834379,1036.834496,1036.834496,x,1,0.7217045,None,2,1,2023-10-09_11h22.33.754,tutorial4,2023.1.3,60.25395838
-50,x,,,,,41,1,165,0,1037.583752,1038.584387,1038.584387,1038.584387,1038.584387,1038.584387,1039.584236,1039.584236,x,1,1.2002717,None,2,1,2023-10-09_11h22.33.754,tutorial4,2023.1.3,60.25395838
50,c,,,,,41,2,166,2,1040.81689,1041.817587,1041.817587,1041.817587,1041.817587,1041.817587,1042.816917,1042.816917,c,1,0.5910299,None,2,1,2023-10-09_11h22.33.754,tutorial4,2023.1.3,60.25395838
-150,z,,,,,41,3,167,3,1043.434,1044.43423,1044.43423,1044.43423,1044.43423,1044.43423,1045.433937,1045.433937,z,1,0.9131908,None,2,1,2023-10-09_11h22.33.754,tutorial4,2023.1.3,60.25395838
-50,x,,,,,42,0,168,0,1046.366593,1047.367251,1047.367251,1047.367251,1047.367251,1047.367251,1048.366984,1048.366984,x,1,0.5548821,None,2,1,2023-10-09_11h22.33.754,tutorial4,2023.1.3,60.25395838
-150,z,,,,,42,1,169,3,1048.949828,1049.94985,1049.94985,1049.94985,1049.94985,1049.94985,1050.950282,1050.950282,z,1,0.7068136,None,2,1,2023-10-09_11h22.33.754,tutorial4,2023.1.3,60.25395838
-50,x,,,,,42,2,170,0,1051.683605,1052.683685,1052.683685,1052.683685,1052.683685,1052.683685,1053.683494,1053.683494,x,1,0.6182539,None,2,1,2023-10-09_11h22.33.754,tutorial4,2023.1.3,60.25395838
50,c,,,,,42,3,171,2,1054.332875,1055.333369,1055.333369,1055.333369,1055.333369,1055.333369,1056.333213,1056.333213,c,1,0.7514171,None,2,1,2023-10-09_11h22.33.754,tutorial4,2023.1.3,60.25395838
50,c,,,,,43,0,172,2,1057.116175,1058.116028,1058.116028,1058.116028,1058.116028,1058.116028,1059.116397,1059.116397,c,1,0.5704944,None,2,1,2023-10-09_11h22.33.754,tutorial4,2023.1.3,60.25395838
-50,x,,,,,43,1,173,0,1059.716731,1060.716475,1060.716475,1060.716475,1060.716475,1060.716475,1061.716416,1061.716416,x,1,0.7502152,None,2,1,2023-10-09_11h22.33.754,tutorial4,2023.1.3,60.25395838
50,c,,,,,43,2,174,2,1062.482922,1063.483158,1063.483158,1063.483158,1063.483158,1063.483158,1064.483116,1064.483116,c,1,0.5486689,None,2,1,2023-10-09_11h22.33.754,tutorial4,2023.1.3,60.25395838
150,v,,,,,43,3,175,1,1065.048864,1066.049279,1066.049279,1066.049279,1066.049279,1066.049279,1067.049252,1067.049252,v,1,0.7457735,None,2,1,2023-10-09_11h22.33.754,tutorial4,2023.1.3,60.25395838
150,v,,,,,44,0,176,1,1067.815957,1068.815972,1068.815972,1068.815972,1068.815972,1068.815972,1069.815919,1069.815919,v,1,0.7156575,None,2,1,2023-10-09_11h22.33.754,tutorial4,2023.1.3,60.25395838
150,v,,,,,44,1,177,1,1070.549087,1071.549246,1071.549246,1071.549246,1071.549246,1071.549246,1072.549165,1072.549165,v,1,0.4272453,None,2,1,2023-10-09_11h22.33.754,tutorial4,2023.1.3,60.25395838
150,v,,,,,44,2,178,1,1072.999113,1073.999115,1073.999115,1073.999115,1073.999115,1073.999115,1074.999008,1074.999008,v,1,0.566267,None,2,1,2023-10-09_11h22.33.754,tutorial4,2023.1.3,60.25395838
150,v,,,,,44,3,179,1,1075.582338,1076.582248,1076.582248,1076.582248,1076.582248,1076.582248,1077.582396,1077.582396,v,1,0.4468299,None,2,1,2023-10-09_11h22.33.754,tutorial4,2023.1.3,60.25395838
50,c,,,,,45,0,180,2,1078.048687,1079.048797,1079.048797,1079.048797,1079.048797,1079.048797,1080.048874,1080.048874,c,1,0.5630783,None,2,1,2023-10-09_11h22.33.754,tutorial4,2023.1.3,60.25395838
-50,x,,,,,45,1,181,0,1080.632136,1081.632206,1081.632206,1081.632206,1081.632206,1081.632206,1082.6323,1082.6323,x,1,0.6618182,None,2,1,2023-10-09_11h22.33.754,tutorial4,2023.1.3,60.25395838
150,v,,,,,45,2,182,1,1083.315126,1084.315373,1084.315373,1084.315373,1084.315373,1084.315373,1085.31506,1085.31506,v,1,0.806988,None,2,1,2023-10-09_11h22.33.754,tutorial4,2023.1.3,60.25395838
150,v,,,,,45,3,183,1,1086.148161,1087.148402,1087.148402,1087.148402,1087.148402,1087.148402,1088.148217,1088.148217,v,1,0.5539882,None,2,1,2023-10-09_11h22.33.754,tutorial4,2023.1.3,60.25395838
150,v,,,,,46,0,184,1,1088.731931,1089.731759,1089.731759,1089.731759,1089.731759,1089.731759,1090.731914,1090.731914,v,1,0.5180369,None,2,1,2023-10-09_11h22.33.754,tutorial4,2023.1.3,60.25395838
50,c,,,,,46,1,185,2,1091.281665,1092.281772,1092.281772,1092.281772,1092.281772,1092.281772,1093.281188,1093.281188,c,1,0.6771266,None,2,1,2023-10-09_11h22.33.754,tutorial4,2023.1.3,60.25395838
150,v,,,,,46,2,186,1,1093.98119,1094.981272,1094.981272,1094.981272,1094.981272,1094.981272,1095.981093,1095.981093,v,1,0.5144993,None,2,1,2023-10-09_11h22.33.754,tutorial4,2023.1.3,60.25395838
150,v,,,,,46,3,187,1,1096.514408,1097.514659,1097.514659,1097.514659,1097.514659,1097.514659,1098.514625,1098.514625,v,1,0.6431888,None,2,1,2023-10-09_11h22.33.754,tutorial4,2023.1.3,60.25395838
150,v,,,,,47,0,188,1,1099.181135,1100.181271,1100.181271,1100.181271,1100.181271,1100.181271,1101.181121,1101.181121,v,1,0.4852003,None,2,1,2023-10-09_11h22.33.754,tutorial4,2023.1.3,60.25395838
-150,z,,,,,47,1,189,3,1101.697546,1102.697681,1102.697681,1102.697681,1102.697681,1102.697681,1103.697562,1103.697562,z,1,0.8030366,None,2,1,2023-10-09_11h22.33.754,tutorial4,2023.1.3,60.25395838
50,c,,,,,47,2,190,2,1104.530784,1105.530742,1105.530742,1105.530742,1105.530742,1105.530742,1106.530613,1106.530613,c,1,0.6380181,None,2,1,2023-10-09_11h22.33.754,tutorial4,2023.1.3,60.25395838
150,v,,,,,47,3,191,1,1107.19746,1108.197256,1108.197256,1108.197256,1108.197256,1108.197256,1109.197422,1109.197422,v,1,0.5213904,None,2,1,2023-10-09_11h22.33.754,tutorial4,2023.1.3,60.25395838
50,c,,,,,48,0,192,2,1109.747169,1110.747151,1110.747151,1110.747151,1110.747151,1110.747151,1111.747101,1111.747101,c,1,0.79289,None,2,1,2023-10-09_11h22.33.754,tutorial4,2023.1.3,60.25395838
150,v,,,,,48,1,193,1,1112.563541,1113.563253,1113.546432,1113.546432,1113.546432,1113.546432,1114.546968,1114.546968,v,1,0.5485858,None,2,1,2023-10-09_11h22.33.754,tutorial4,2023.1.3,60.25395838
-150,z,,,,,48,2,194,3,1115.11348,1116.11378,1116.11378,1116.11378,1116.11378,1116.11378,1117.11372,1117.11372,z,1,1.1410716,None,2,1,2023-10-09_11h22.33.754,tutorial4,2023.1.3,60.25395838
50,c,,,,,48,3,195,2,1118.279739,1119.279662,1119.279662,1119.279662,1119.279662,1119.279662,1120.280214,1120.280214,c,1,1.3258481,None,2,1,2023-10-09_11h22.33.754,tutorial4,2023.1.3,60.25395838
50,c,,,,,49,0,196,2,1121.629936,1122.630124,1122.630124,1122.630124,1122.630124,1122.630124,1123.630065,1123.630065,c,1,0.6615603,None,2,1,2023-10-09_11h22.33.754,tutorial4,2023.1.3,60.25395838
-150,z,,,,,49,1,197,3,1124.312935,1125.312969,1125.312969,1125.312969,1125.312969,1125.312969,1126.31348,1126.31348,z,1,1.013476,None,2,1,2023-10-09_11h22.33.754,tutorial4,2023.1.3,60.25395838
150,v,,,,,49,2,198,1,1127.345807,1128.346551,1128.346551,1128.346551,1128.346551,1128.346551,1129.345924,1129.345924,v,1,0.961589,None,2,1,2023-10-09_11h22.33.754,tutorial4,2023.1.3,60.25395838
-50,x,,,,,49,3,199,0,1130.329657,1131.329639,1131.329639,1131.329639,1131.329639,1131.329639,1132.329704,1132.329704,x,1,0.8730736,None,2,1,2023-10-09_11h22.33.754,tutorial4,2023.1.3,60.25395838
